id,timestamp,acc_x,acc_y,acc_z,gyro_x,gyro_y,gyro_z
0,0,0.9873137,-0.083907336,1.8971838,2.1485658,3.92542,-0.55848354
1,0.01,0.9637148,-0.11982407,1.8369365,2.0263927,4.54835,-0.6035349
2,0.02,0.94023776,-0.15915562,1.7689446,1.9091066,4.8015537,-0.5697846
3,0.03,0.93157876,-0.17141244,1.7665664,1.8018998,5.018258,-0.5163339
4,0.04,1.0072539,-0.18074225,1.7577245,1.720502,5.371796,-0.47540587
5,0.05,1.0270112,-0.18799877,1.7399796,1.720502,5.371796,-0.47540587
6,0.060000000000000005,0.9846916,-0.26318607,1.7721156,1.7319556,5.382639,-0.559858
7,0.07,0.9846916,-0.26318607,1.7721156,1.8807014,5.361564,-0.63224554
8,0.08,0.87657547,-0.39441326,1.6479012,2.5265386,5.31071,-0.61453044
9,0.09,0.8602941,-0.40154782,1.5688721,2.6542094,5.2652,-0.5878051
10,0.09999999999999999,0.8602941,-0.40154782,1.5688721,2.6542094,5.2652,-0.5878051
11,0.10999999999999999,0.88694197,-0.36666775,1.3153207,2.5767822,4.9522843,-0.56123245
12,0.11999999999999998,0.88694197,-0.36666775,1.3153207,2.3138049,5.2543573,-0.61193424
13,0.12999999999999998,0.82870686,-0.4311227,1.3779463,2.2768476,5.7303743,-0.56398135
14,0.13999999999999999,0.8235847,-0.45087993,1.3191624,2.3357959,5.960212,-0.47891834
15,0.15,0.7556538,-0.48447952,1.1575675,2.5335636,6.4085875,-0.31306845
16,0.16,0.7104073,-0.5232013,0.8730387,2.7577512,6.7153945,-0.09758572
17,0.17,0.719981,-0.5183839,0.69174767,2.859613,6.8543663,0.110413894
18,0.18000000000000002,0.72662777,-0.47557652,0.50271225,2.9842293,6.8896437,0.3239113
19,0.19000000000000003,0.7226641,-0.4548436,0.43276918,3.0320296,6.8510065,0.38560867
20,0.20000000000000004,0.6587579,-0.34959355,0.14067894,3.0320296,6.8510065,0.38560867
21,0.21000000000000005,0.55600804,-0.26202747,-0.03957548,2.9405525,5.816964,0.61437774
22,0.22000000000000006,0.48612595,-0.16671704,-0.12580003,2.6597073,5.348889,0.64751714
23,0.23000000000000007,0.44447714,-0.06457694,-0.113299295,2.385887,4.9748864,0.6203337
24,0.24000000000000007,0.3899008,0.057015523,-0.093907915,2.1421516,4.7218356,0.54534996
25,0.25000000000000006,0.3899008,0.057015523,-0.093907915,1.8802432,4.619821,0.41431937
26,0.26000000000000006,0.3899008,0.057015523,-0.093907915,1.7004961,4.679533,0.2967278
27,0.2700000000000001,0.3899008,0.057015523,-0.093907915,1.7004961,4.679533,0.2967278
28,0.2800000000000001,0.26964986,0.048783336,-0.14763056,1.5743525,4.906775,0.1910481
29,0.2900000000000001,0.09500554,0.05256404,-0.28544348,1.6232216,4.9011245,0.21578814
30,0.3000000000000001,-0.110006414,0.08689531,-0.57735074,1.7521143,4.7714686,0.345597
31,0.3100000000000001,-0.1197021,0.12945877,-0.65692854,2.039679,4.208709,0.7180721
32,0.3200000000000001,-0.10573788,0.17214419,-0.7630323,2.255009,3.8368447,0.8396343
33,0.3300000000000001,-0.102262065,0.23580644,-0.95676315,2.443003,3.382819,0.90133166
34,0.34000000000000014,-0.1378739,0.29952967,-1.2395846,2.4306328,2.7687466,0.9025534
35,0.35000000000000014,-0.16903426,0.3284948,-1.4088627,2.1502457,2.292119,0.86361074
36,0.36000000000000015,-0.17696154,0.3547768,-1.5632619,2.1502457,2.292119,0.86361074
37,0.37000000000000016,-0.21824445,0.40441385,-1.6519867,1.2559389,1.7322611,0.7672467
38,0.38000000000000017,-0.21824445,0.40441385,-1.6519867,1.2559389,1.7322611,0.7672467
39,0.3900000000000002,-0.2570272,0.44264776,-1.647962,0.22327125,1.2444853,0.5878051
40,0.4000000000000002,-0.2771503,0.4764912,-1.5579567,-0.16126843,0.84391034,0.46593747
41,0.4100000000000002,-0.30142003,0.52204263,-1.4447185,-0.33368513,0.40683624,0.345597
42,0.4200000000000002,-0.3266654,0.5478978,-1.3751413,-0.45158213,-0.08475755,0.22204952
43,0.4300000000000002,-0.36453345,0.5538128,-1.2912949,-0.571159,-0.55680364,0.113162786
44,0.4400000000000002,-0.41234115,0.56277674,-1.1481158,-0.7600691,-1.0816896,0.01740966
45,0.45000000000000023,-0.43100074,0.5775947,-1.0422559,-0.8940013,-1.3426818,0.005497787
46,0.46000000000000024,-0.4133168,0.60491335,-0.7748623,-1.0319041,-1.7461584,0.03313944
47,0.47000000000000025,-0.4133168,0.60491335,-0.7748623,-1.0319041,-1.7461584,0.03313944
48,0.48000000000000026,-0.362948,0.6519892,-0.62192655,-0.9314168,-2.0129538,-0.044593163
49,0.49000000000000027,-0.3521547,0.66680723,-0.5869245,-0.91767234,-2.1096232,-0.17623462
50,0.5000000000000002,-0.38270527,0.66723406,-0.5545445,-0.91767234,-2.1096232,-0.17623462
51,0.5100000000000002,-0.38270527,0.66723406,-0.5545445,-0.9998337,-2.1395555,-0.32467487
52,0.5200000000000002,-0.39410836,0.65168434,-0.5247867,-1.1047498,-2.1209242,-0.41722095
53,0.5300000000000002,-0.42630538,0.582534,-0.43362287,-1.2151637,-2.0630445,-0.46822822
54,0.5400000000000003,-0.43081784,0.5616791,-0.4080726,-1.3516921,-1.981036,-0.4914411
55,0.5500000000000003,-0.43161055,0.58753425,-0.3927668,-1.3516921,-1.981036,-0.4914411
56,0.5600000000000003,-0.4131339,0.59558356,-0.34398347,-1.5358679,-2.3374758,-0.5841399
57,0.5700000000000003,-0.41996354,0.56509393,-0.27007675,-1.6409367,-2.5593727,-0.7368562
58,0.5800000000000003,-0.4492945,0.49795586,-0.17403455,-1.7030923,-2.6893342,-0.8516989
59,0.5900000000000003,-0.4821013,0.41996354,-0.11397006,-1.7310394,-2.6955955,-0.87995136
60,0.6000000000000003,-0.54332435,0.3840468,-0.10878683,-1.7950275,-2.6849055,-0.8060367
61,0.6100000000000003,-0.57978994,0.3808759,-0.11543357,-2.0161607,-2.7299569,-0.66996646
62,0.6200000000000003,-0.5349702,0.37258273,-0.05786923,-2.0161607,-2.7299569,-0.66996646
63,0.6300000000000003,-0.47874746,0.3259946,0.19616999,-2.3066273,-2.8134925,-0.54550266
64,0.6400000000000003,-0.45234346,0.3050178,0.298554,-2.6659687,-2.7924178,-0.48426342
65,0.6500000000000004,-0.35648423,0.27812597,0.5332628,-2.3956609,-2.5332582,-0.5532912
66,0.6600000000000004,-0.38148567,0.24513626,0.6138163,-1.851838,-2.2968533,-0.6462954
67,0.6700000000000004,-0.4408184,0.20787798,0.5279576,-1.3542882,-2.1655173,-0.644921
68,0.6800000000000004,-0.52064013,0.23690407,0.29873693,-0.9195049,-2.2553146,-0.4961753
69,0.6900000000000004,-0.54143405,0.2660521,0.16464376,-0.8669705,-2.5062275,-0.36758816
70,0.7000000000000004,-0.38916904,0.26111278,0.2992248,-1.4401149,-3.4345899,-0.013897184
71,0.7100000000000004,-0.38916904,0.26111278,0.2992248,-1.4401149,-3.4345899,-0.013897184
72,0.7200000000000004,-0.30020046,0.25129515,0.42551264,-1.4929546,-3.4701726,0.060628377
73,0.7300000000000004,-0.24812423,0.22653762,0.49893156,-1.3037392,-3.2151365,0.05467244
74,0.7400000000000004,-0.20184104,0.18659624,0.57302123,-1.3037392,-3.2151365,0.05467244
75,0.7500000000000004,-0.20184104,0.18659624,0.57302123,-0.51083606,-2.616794,0.05222898
76,0.7600000000000005,-0.24501431,0.060308397,0.33239743,-0.47998735,-2.793334,0.23548855
77,0.7700000000000005,-0.16927817,0.09817646,-0.15555786,-0.89369583,-3.25469,0.3643811
78,0.7800000000000005,-0.045002624,0.1153116,-0.21446373,-1.5864171,-3.83883,0.38331795
79,0.7900000000000005,0.1340932,0.15299673,0.087992944,-2.4654522,-4.5707994,0.2302962
80,0.8000000000000005,0.32026258,0.11604336,0.5118591,-2.9885056,-5.009095,-0.028099801
81,0.8100000000000005,0.4119143,0.046405144,0.80065644,-3.0925052,-4.9955034,-0.29917124
82,0.8200000000000005,0.40673104,-0.03298973,0.9774961,-2.9477303,-4.616767,-0.61666846
83,0.8300000000000005,0.3158111,-0.1381788,1.0178033,-2.778826,-4.198477,-0.7237226
84,0.8400000000000005,0.17433943,-0.26983282,0.8123645,-2.4857633,-3.3809865,-0.5687156
85,0.8500000000000005,0.15994836,-0.32709226,0.626317,-2.4937046,-3.1963525,-0.300393
86,0.8600000000000005,0.40752378,-0.32654345,0.48112562,-2.6629143,-3.390913,-0.022907447
87,0.8700000000000006,0.40752378,-0.32654345,0.48112562,-2.905886,-3.919617,0.11713341
88,0.8800000000000006,0.6344882,-0.32477504,0.59741294,-3.264922,-4.722599,0.1255328
89,0.8900000000000006,0.9253589,-0.29080966,1.036036,-3.539506,-5.986174,-0.47784933
90,0.9000000000000006,1.0032902,-0.3473983,1.469293,-3.313333,-5.8824797,-0.7348709
91,0.9100000000000006,0.8859663,-0.4235613,1.5026487,-2.956435,-5.365382,-0.8718574
92,0.9200000000000006,0.8859663,-0.4235613,1.5026487,-2.956435,-5.365382,-0.8718574
93,0.9300000000000006,0.7577881,-0.51966447,1.4099603,-2.446668,-4.171599,-0.56153786
94,0.9400000000000006,0.67833227,-0.6349761,1.0314626,-2.446668,-4.171599,-0.56153786
95,0.9500000000000006,0.81675494,-0.6691244,1.0522565,-2.568383,-4.294688,0.068264194
96,0.9600000000000006,0.9942653,-0.6555871,1.1376883,-2.568383,-4.294688,0.068264194
97,0.9700000000000006,1.080246,-0.65089166,1.2135464,-2.552195,-4.649448,0.28389964
98,0.9800000000000006,1.080246,-0.65089166,1.2135464,-2.4263568,-5.22076,0.4717407
99,0.9900000000000007,1.1779346,-0.5892417,1.4033746,-2.185065,-5.181512,0.40943244
100,1.0000000000000007,1.1779346,-0.5892417,1.4033746,-2.185065,-5.181512,0.40943244
101,1.0100000000000007,1.2444628,-0.54692215,1.4039844,-1.7638733,-4.4860415,0.16584991
102,1.0200000000000007,1.1769589,-0.5535689,1.2805625,-1.7638733,-4.4860415,0.16584991
103,1.0300000000000007,1.0867708,-0.5479588,1.2318401,-1.9839376,-4.1543417,0.0786489
104,1.0400000000000007,1.1018326,-0.4721617,1.4347788,-2.0335703,-4.2752934,0.13515393
105,1.0500000000000007,1.1703123,-0.41880494,1.5269184,-1.8909334,-4.6439505,0.31245756
106,1.0600000000000007,1.1703123,-0.41880494,1.5269184,-1.6426166,-4.8473682,0.43233988
107,1.0700000000000007,1.2467191,-0.36752144,1.563079,-1.2638801,-4.9667926,0.5526803
108,1.0800000000000007,1.2467191,-0.36752144,1.563079,-1.2638801,-4.9667926,0.5526803
109,1.0900000000000007,1.2467191,-0.36752144,1.563079,-1.2638801,-4.9667926,0.5526803
110,1.1000000000000008,1.3105643,-0.3111767,1.5303942,-1.0144944,-4.9565606,0.6264423
111,1.1100000000000008,1.3872151,-0.22696446,1.3630064,-1.31672,-4.047593,0.009010263
112,1.1200000000000008,1.209034,-0.22550097,1.3913617,-1.9312505,-3.245527,-0.4728097
113,1.1300000000000008,1.209034,-0.22550097,1.3913617,-1.9312505,-3.245527,-0.4728097
114,1.1400000000000008,1.1886669,-0.25245374,1.3948984,-2.3785565,-2.7679832,-0.8593347
115,1.1500000000000008,1.0592692,-0.28934616,1.5407606,-2.5034785,-2.5738807,-1.1201742
116,1.1600000000000008,1.0592692,-0.28934616,1.5407606,-2.5034785,-2.5738807,-1.1201742
117,1.1700000000000008,0.936884,-0.39124236,1.6089964,-2.6644416,-2.2142339,-1.4982997
118,1.1800000000000008,0.8724289,-0.45709983,1.7080874,-2.6575692,-1.9567541,-1.5409076
119,1.1900000000000008,0.79693675,-0.51204205,1.8834635,-2.3170118,-1.4075862,-1.4272866
120,1.2000000000000008,0.6444889,-0.5307017,1.9854817,-1.8982637,-0.8859073,-1.2359331
121,1.2100000000000009,0.5711919,-0.500761,2.03457,-1.2066116,-0.28405234,-0.9111055
122,1.2200000000000009,0.5711919,-0.500761,2.03457,-1.2066116,-0.28405234,-0.9111055
123,1.2300000000000009,0.5711919,-0.500761,2.03457,-1.2066116,-0.28405234,-0.9111055
124,1.2400000000000009,0.6173531,-0.50094384,1.8990742,0.56245416,0.7623598,-0.027030786
125,1.2500000000000009,0.74162865,-0.47368616,1.6377785,0.84879726,0.9963212,0.14385876
126,1.260000000000001,0.819621,-0.44679436,1.5217961,1.0627528,1.2614367,0.279929
127,1.270000000000001,0.9317007,-0.4253907,1.4602681,1.1275045,1.4376713,0.30650163
128,1.280000000000001,1.1143333,-0.357094,1.4349618,1.1192578,1.591304,0.2507602
129,1.290000000000001,1.1634215,-0.35136196,1.4455721,0.8695667,2.1629212,-0.117744274
130,1.300000000000001,1.2190956,-0.37081432,1.4970995,0.72586066,2.4888177,-0.27046058
131,1.310000000000001,1.2248276,-0.41599986,1.5381385,0.72586066,2.4888177,-0.27046058
132,1.320000000000001,1.2248276,-0.41599986,1.5381385,0.61682117,2.922532,-0.41722095
133,1.330000000000001,1.2273887,-0.4666126,1.5553347,0.55481833,3.2247577,-0.46043968
134,1.340000000000001,1.3048322,-0.62076795,1.6554625,0.5152648,3.5894442,-0.45616361
135,1.350000000000001,1.3286141,-0.67363685,1.6929036,0.73899424,4.341725,-0.32085696
136,1.360000000000001,1.3624575,-0.7046143,1.6931474,0.93691456,4.6421175,-0.2144137
137,1.370000000000001,1.4152654,-0.7315671,1.6905864,1.2078333,4.956713,-0.031612277
138,1.380000000000001,1.5783238,-0.7632762,1.6863179,1.2078333,4.956713,-0.031612277
139,1.390000000000001,1.6518648,-0.7676667,1.6938794,1.6274977,5.32705,0.18112154
140,1.400000000000001,1.8415098,-0.76358116,1.6874765,2.1563544,5.4351735,0.11056661
141,1.410000000000001,1.9451134,-0.75364155,1.7025384,2.7349963,5.207779,-0.10140363
142,1.420000000000001,1.9451134,-0.75364155,1.7025384,3.2971451,4.9168544,-0.30833423
143,1.430000000000001,1.7782135,-0.6735149,1.6286926,4.012774,4.5561385,-0.50778174
144,1.440000000000001,1.7269909,-0.68406427,1.4850867,4.523457,4.3382125,-0.6235407
145,1.450000000000001,1.6985137,-0.6715026,1.3496519,4.6825876,4.3965497,-0.6754643
146,1.460000000000001,1.7017457,-0.6329638,1.2010458,4.613407,4.6572366,-0.70386946
147,1.470000000000001,1.7017457,-0.6329638,1.2010458,4.1642685,5.10607,-0.7318166
148,1.480000000000001,1.6927207,-0.47551554,0.92907864,3.4663548,5.7167826,-0.7655669
149,1.490000000000001,1.6413152,-0.41837808,0.9215172,3.0619621,6.0863557,-0.79901177
150,1.500000000000001,1.4502676,-0.34306878,0.919139,2.0851886,6.7601404,-0.77488256
151,1.5100000000000011,1.4502676,-0.34306878,0.919139,2.0851886,6.7601404,-0.77488256
152,1.5200000000000011,1.3712386,-0.3473983,0.9325544,1.9472857,6.8300843,-0.7295258
153,1.5300000000000011,1.2721474,-0.34873986,0.9949361,2.0033326,7.0163984,-0.5207626
154,1.5400000000000011,1.0325602,-0.34319076,0.9178584,2.3600779,6.967682,-0.2932153
155,1.5500000000000012,1.0364629,-0.3041031,0.7970587,2.513863,6.7297497,-0.090713486
156,1.5600000000000012,1.0882342,-0.22373258,0.68796694,2.513863,6.7297497,-0.090713486
157,1.5700000000000012,1.0906124,-0.17061971,0.6654047,2.4124596,6.1068196,0.050701816
158,1.5800000000000012,1.0408534,-0.12525122,0.6375372,2.308307,5.984036,0.007788532
159,1.5900000000000012,0.94218916,-0.10195717,0.644062,1.9790506,5.8256693,-0.04627304
160,1.6000000000000012,0.8296825,-0.11348223,0.7458972,1.845882,5.9687643,-0.06856962
161,1.6100000000000012,0.7692522,-0.1516552,0.81736475,1.9588921,6.233116,-0.065209866
162,1.6200000000000012,0.761081,-0.2133661,0.7410798,2.335185,6.654308,-0.020463986
163,1.6300000000000012,0.7419335,-0.24214828,0.62040204,2.5625796,6.824281,0.04016439
164,1.6400000000000012,0.6988823,-0.248795,0.4431356,2.9671252,6.9930325,0.18509217
165,1.6500000000000012,0.67046595,-0.19562118,0.080614455,3.1309898,7.014871,0.21792617
166,1.6600000000000013,0.67046595,-0.19562118,0.080614455,3.513544,6.7439523,0.3022256
167,1.6700000000000013,0.5746067,-0.13299556,-0.12336086,3.6512942,6.3798766,0.2678644
168,1.6800000000000013,0.48569906,-0.08470006,-0.22861089,3.6569448,5.546046,0.18448131
169,1.6900000000000013,0.33160472,-0.070065066,-0.38435167,3.6569448,5.546046,0.18448131
170,1.7000000000000013,0.33160472,-0.070065066,-0.38435167,3.5944839,5.2490125,0.14859296
171,1.7100000000000013,0.12317792,0.023416,-0.90218675,3.0896037,4.991838,0.08155051
172,1.7200000000000013,0.2550149,-0.03500204,-0.5434463,3.428023,5.089271,0.11148291
173,1.7300000000000013,0.04994194,0.06646729,-1.0145714,2.8209758,4.898681,0.07422013
174,1.7400000000000013,-0.1791568,0.1425693,-1.1625068,2.0648773,4.3030877,0.064446285
175,1.7500000000000013,-0.21934207,0.13153206,-1.1832398,2.0648773,4.3030877,0.064446285
176,1.7600000000000013,-0.29818815,0.13116619,-1.2922096,2.0092885,3.8524218,0.10888673
177,1.7700000000000014,-0.32068944,0.12738548,-1.3791658,2.2021692,3.2323935,0.17623462
178,1.7800000000000014,-0.36099666,0.06799178,-1.7030262,2.123673,2.3338106,0.32986724
179,1.7900000000000014,-0.46258798,0.09585925,-1.8026662,1.7469219,1.8593211,0.43096542
180,1.8000000000000014,-0.48844314,0.12226323,-1.8680968,1.4650075,1.5315919,0.48197266
181,1.8100000000000014,-0.46832004,0.1583629,-1.9024282,0.86193085,0.9419542,0.49281552
182,1.8200000000000014,-0.46832004,0.1583629,-1.9024282,0.3817908,0.4897612,0.43661594
183,1.8300000000000014,-0.4718568,0.21818347,-1.6259485,-0.043218717,-0.08078693,0.33964106
184,1.8400000000000014,-0.48429656,0.22970851,-1.5072831,-0.20219639,-0.41370848,0.30451632
185,1.8500000000000014,-0.471186,0.2552588,-1.3217845,-0.37415496,-0.9860892,0.28863382
186,1.8600000000000014,-0.44520888,0.2947733,-1.2084851,-0.4260785,-1.4002558,0.28878653
187,1.8700000000000014,-0.3904496,0.3840468,-1.1339686,-0.48808134,-2.0926716,0.2753475
188,1.8800000000000014,-0.3904496,0.3840468,-1.1339686,-0.48808134,-2.0926716,0.2753475
189,1.8900000000000015,-0.2687352,0.40112096,-1.076953,-0.5725334,-2.245846,0.2510656
190,1.9000000000000015,-0.23879443,0.3802661,-1.0870756,-0.76174897,-2.3961189,0.13790283
191,1.9100000000000015,-0.23879443,0.3802661,-1.0870756,-1.1268936,-2.375655,-0.08475755
192,1.9200000000000015,-0.3033104,0.26922303,-1.0995153,-1.847562,-2.2256875,-0.40790528
193,1.9300000000000015,-0.34721538,0.22763525,-1.0736603,-2.109165,-2.251802,-0.47800204
194,1.9400000000000015,-0.34721538,0.22763525,-1.0736603,-2.109165,-2.251802,-0.47800204
195,1.9500000000000015,-0.42490283,0.11695804,-0.9381035,-2.6726882,-2.6335928,-0.3943135
196,1.9600000000000015,-0.35374016,0.050734665,-0.746507,-2.6726882,-2.6335928,-0.3943135
197,1.9700000000000015,-0.2651374,0.023903834,-0.620524,-2.7550023,-3.4794884,-0.06841691
198,1.9800000000000015,-0.22562292,0.0024391667,-0.5638134,-2.6804767,-3.8195877,-0.022449298
199,1.9900000000000015,-0.20580468,-0.010183521,-0.44069642,-2.5615108,-4.217719,0.049632803
200,2.0000000000000013,-0.19586508,-0.027074749,-0.3999014,-2.5057693,-4.541936,0.1638646
201,2.010000000000001,-0.19586508,-0.027074749,-0.3999014,-2.5057693,-4.541936,0.1638646
202,2.020000000000001,-0.16153382,-0.054515377,-0.3568501,-2.575408,-4.8789806,0.36667186
203,2.0300000000000007,-0.16153382,-0.054515377,-0.3568501,-2.575408,-4.8789806,0.36667186
204,2.0400000000000005,0.03725827,-0.22897679,0.0035367915,-3.3841934,-4.884173,1.0577132
205,2.0500000000000003,0.03725827,-0.22897679,0.0035367915,-3.3841934,-4.884173,1.0577132
206,2.06,0.39038864,-0.22708642,0.23019636,-3.5949419,-4.8133125,1.183246
207,2.07,0.54753196,-0.16811956,0.36947277,-3.557832,-4.936555,1.0641272
208,2.0799999999999996,0.62704873,-0.124885336,0.48521125,-3.4510832,-5.1143165,0.86116725
209,2.0899999999999994,0.5050904,-0.21184163,0.7993759,-2.6787968,-5.533981,0.25488353
210,2.099999999999999,0.41953668,-0.25440508,0.73815286,-2.5900686,-5.810092,0.5184719
211,2.109999999999999,0.45581928,-0.31276214,0.7163223,-2.8026497,-5.9841886,0.8677341
212,2.1199999999999988,0.53033584,-0.35465485,0.7429092,-3.0515773,-5.979302,1.1192578
213,2.1299999999999986,0.9321885,-0.34282488,0.91395575,-3.5381315,-5.6767707,1.3939945
214,2.1399999999999983,1.220559,-0.286846,1.0989056,-3.7282634,-5.35851,1.2299771
215,2.149999999999998,1.3096496,-0.18299848,1.2437311,-3.6523633,-4.907233,0.65118235
216,2.159999999999998,1.0811605,-0.20354846,1.1958624,-3.4090862,-4.5503354,0.04810564
217,2.1699999999999977,0.9357254,-0.27391842,1.1109794,-3.2921054,-4.4765735,-0.13255776
218,2.1799999999999975,0.9357254,-0.27391842,1.1109794,-3.2921054,-4.4765735,-0.13255776
219,2.1899999999999973,0.9357254,-0.27391842,1.1109794,-3.2921054,-4.4765735,-0.13255776
220,2.199999999999997,0.9470064,-0.44655046,1.3569084,-3.1531336,-5.2149568,0.103847094
221,2.209999999999997,1.0622572,-0.442038,1.331663,-2.5841126,-5.890421,0.6582073
222,2.2199999999999966,1.3425174,-0.41758534,1.2683667,-2.5865562,-5.9050817,0.690125
223,2.2299999999999964,1.498807,-0.392279,1.2720864,-2.5865562,-5.9050817,0.690125
224,2.239999999999996,1.4938067,-0.3784977,1.3205649,-2.9498682,-5.006346,0.03940081
225,2.249999999999996,1.1737881,-0.47521064,1.25861,-2.8225029,-4.266283,-0.26984972
226,2.259999999999996,1.1737881,-0.47521064,1.25861,-2.8225029,-4.266283,-0.26984972
227,2.2699999999999956,1.1141503,-0.52399397,1.2098876,-2.4313965,-4.588056,0.07269296
228,2.2799999999999954,1.1645192,-0.5229573,1.1422008,-2.4313965,-4.588056,0.07269296
229,2.289999999999995,1.4688662,-0.50283426,1.0577446,-2.4846945,-5.6547794,0.3129157
230,2.299999999999995,1.6109476,-0.45777062,1.1561041,-2.7151432,-6.0932283,0.2863431
231,2.3099999999999947,1.6109476,-0.45777062,1.1561041,-2.7151432,-6.0932283,0.2863431
232,2.3199999999999945,1.8095568,-0.4619782,1.4319738,-2.9642236,-6.2706842,0.19013181
233,2.3299999999999943,1.8423026,-0.4399037,1.5616765,-3.277292,-5.9582267,-0.09697486
234,2.339999999999994,1.7383332,-0.41435343,1.6607066,-3.058297,-5.0541463,-0.41615194
235,2.349999999999994,1.5817996,-0.4443552,1.5849705,-2.8570168,-4.4892488,-0.5849035
236,2.3599999999999937,1.4759398,-0.4788694,1.5165519,-2.6426032,-4.0743184,-0.7099781
237,2.3699999999999934,1.335017,-0.5155179,1.4449624,-2.3171647,-3.8050797,-0.7874053
238,2.3799999999999932,1.2615371,-0.5371045,1.3977034,-1.9544634,-3.6830592,-0.7440339
239,2.389999999999993,1.1607385,-0.55460554,1.2989782,-1.7104226,-3.6738963,-0.6017023
240,2.399999999999993,1.1428106,-0.53533614,1.2717205,-1.4915802,-3.806454,-0.3491095
241,2.4099999999999926,1.1901914,-0.49515083,1.2400113,-1.3968961,-3.972762,-0.19975294
242,2.4199999999999924,1.1893377,-0.46295384,1.2600735,-1.409877,-4.1033344,-0.112399206
243,2.429999999999992,1.264464,-0.43545225,1.3326387,-1.4556919,-4.0792055,-0.060170226
244,2.439999999999992,1.3557498,-0.43215933,1.4192902,-1.604743,-3.716657,-0.19715676
245,2.4499999999999917,1.3010515,-0.4122192,1.5144786,-1.7463111,-3.1575625,-0.37415496
246,2.4599999999999915,1.2140952,-0.36642382,1.6568041,-1.7044667,-1.8038851,-0.5213735
247,2.4699999999999913,1.118236,-0.39916962,1.6596699,-1.6818647,-1.5351044,-0.52595496
248,2.479999999999991,1.0371337,-0.4255736,1.6425959,-1.6818647,-1.5351044,-0.52595496
249,2.489999999999991,0.8476714,-0.49649242,1.6221068,-1.261284,-0.26984972,-0.16890424
250,2.4999999999999907,0.80443716,-0.50978583,1.6637557,-1.0228939,-0.15821409,-0.022296581
251,2.5099999999999905,0.8290728,-0.45770964,1.7529682,-0.46777007,-0.04337143,0.21319197
252,2.5199999999999902,0.86736774,-0.4306349,1.7598588,-0.46777007,-0.04337143,0.21319197
253,2.52999999999999,0.99109435,-0.40032822,1.7027214,0.58032197,0.44226643,0.49312097
254,2.53999999999999,1.0998203,-0.3902667,1.5906416,0.96684694,0.819323,0.5013676
255,2.5499999999999896,1.1673242,-0.37355837,1.510698,1.1000156,1.059393,0.4644103
256,2.5599999999999894,1.2768428,-0.34166628,1.3579451,1.125061,1.5914567,0.30711251
257,2.569999999999989,1.325992,-0.34691048,1.3156255,1.0329732,1.8532125,0.1965459
258,2.579999999999989,1.340627,-0.38538834,1.2889166,1.0329732,1.8532125,0.1965459
259,2.5899999999999888,1.273428,-0.43496442,1.3137352,0.6206391,2.7924178,-0.062002823
260,2.5999999999999885,1.2387308,-0.47502774,1.3445907,0.55665094,3.1447344,-0.050396383
261,2.6099999999999883,1.2639762,-0.52588433,1.3858736,0.56107974,3.4695618,0.009468411
262,2.619999999999988,1.3053811,-0.5596668,1.4100822,0.5867361,3.6236527,0.050701816
263,2.629999999999988,1.413741,-0.63302475,1.4389254,0.5867361,3.6236527,0.050701816
264,2.6399999999999877,1.5448463,-0.7048582,1.4352666,0.5841399,4.5135307,0.14844026
265,2.6499999999999875,1.709246,-0.819499,1.3881298,0.41996986,4.832402,0.17302758
266,2.6599999999999873,1.709246,-0.819499,1.3881298,0.41996986,4.832402,0.17302758
267,2.669999999999987,1.709246,-0.819499,1.3881298,0.30665436,5.03185,0.20708331
268,2.679999999999987,1.7114413,-0.88194174,1.5044171,0.49021935,5.9417334,0.519999
269,2.6899999999999866,1.7035141,-0.8845638,1.6174115,1.0199922,6.180887,0.7414377
270,2.6999999999999864,1.7906532,-0.8329144,1.5942394,1.0199922,6.180887,0.7414377
271,2.709999999999986,1.8307165,-0.77967966,1.5555176,2.075262,6.069557,0.98944896
272,2.719999999999986,1.8823049,-0.7070534,1.4678905,2.6801713,6.1306434,0.95630956
273,2.7299999999999858,1.940662,-0.68406427,1.3717264,3.2155948,6.2120414,0.81016004
274,2.7399999999999856,1.91127,-0.68504,1.2895265,3.5756998,6.1592016,0.6817256
275,2.7499999999999853,1.8487054,-0.6649168,1.1464083,3.9420662,6.0965877,0.54733527
276,2.759999999999985,1.7875433,-0.6535747,1.0111566,4.0640864,6.0532165,0.46379945
277,2.769999999999985,1.677537,-0.61064535,0.91987073,4.0387354,6.0773454,0.37064248
278,2.7799999999999847,1.677537,-0.61064535,0.91987073,4.0251436,6.126062,0.3275765
279,2.7899999999999845,1.4136801,-0.512164,0.82876784,4.07386,6.282291,0.19013181
280,2.7999999999999843,1.302576,-0.4911872,0.7621176,4.0430117,6.1758475,0.15607607
281,2.809999999999984,1.244036,-0.45325816,0.6932722,3.9338195,6.0336685,0.14630222
282,2.819999999999984,1.1965332,-0.42411014,0.60424256,3.713908,5.9687643,0.14874569
283,2.8299999999999836,1.1900694,-0.38923004,0.54234874,3.713908,5.9687643,0.14874569
284,2.8399999999999834,1.0700624,-0.23367217,0.8101692,2.2464569,5.604078,-0.020463986
285,2.849999999999983,1.0700624,-0.23367217,0.8101692,2.2464569,5.604078,-0.020463986
286,2.859999999999983,0.7780332,-0.3164819,1.0646353,2.4475844,5.809023,-0.10934488
287,2.869999999999983,0.7780332,-0.3164819,1.0646353,2.4475844,5.809023,-0.10934488
288,2.8799999999999826,0.75223905,-0.37081432,0.8890763,3.0469959,5.957005,0.04795292
289,2.8899999999999824,0.7686424,-0.374717,0.7163223,3.5214853,5.9078307,0.22983804
290,2.899999999999982,0.7686424,-0.374717,0.7163223,3.5214853,5.9078307,0.22983804
291,2.909999999999982,0.74303114,-0.30666426,0.5519834,3.5514178,5.812841,0.27320948
292,2.9199999999999817,0.6752833,-0.28666306,0.5354581,3.5398114,5.7383156,0.25137106
293,2.9299999999999815,0.5874123,-0.26836932,0.4929556,3.6833646,5.7549615,0.18982637
294,2.9399999999999813,0.5553983,-0.269284,0.42343935,3.9371793,5.800471,0.099571034
295,2.949999999999981,0.4816135,-0.25861263,0.24227023,4.1421247,5.7990966,0.025045475
296,2.959999999999981,0.4816135,-0.25861263,0.24227023,4.1421247,5.7990966,0.025045475
297,2.9699999999999807,0.3632529,-0.24105065,-0.12610492,4.1683917,5.7516017,-0.006414085
298,2.9799999999999804,0.3006273,-0.18135203,-0.3842907,3.7258198,5.6329412,0.019394971
299,2.9899999999999802,0.2004995,-0.08494398,-0.51948154,3.3276885,5.464495,0.0346666
300,2.99999999999998,0.08506594,0.03524596,-0.5041148,2.4233024,4.9568663,-0.08399397
301,3.00999999999998,0.08506594,0.03524596,-0.5041148,2.4233024,4.9568663,-0.08399397
302,3.0199999999999796,0.0482955,0.06104015,-0.45069703,2.3574817,4.8354564,-0.19150625
303,3.0299999999999794,-0.13452004,-0.020671938,-0.79169255,2.4776695,4.4661884,-0.35201108
304,3.039999999999979,-0.13452004,-0.020671938,-0.79169255,2.4776695,4.4661884,-0.35201108
305,3.049999999999979,-0.22897679,-0.053417753,-0.9345057,2.2446244,4.1502185,-0.111177474
306,3.0599999999999787,-0.22897679,-0.053417753,-0.9345057,2.2446244,4.1502185,-0.111177474
307,3.0699999999999785,-0.48551616,-0.034941066,-1.3709947,1.8558086,3.484528,0.41890085
308,3.0799999999999783,-0.4885651,-0.017562,-1.419473,1.704925,3.238502,0.5707009
309,3.089999999999978,-0.45740473,0.09579827,-1.5380166,1.4543175,2.7062857,0.7535023
310,3.099999999999978,-0.39703536,0.14836231,-1.6604017,1.1928672,2.1711679,0.7272351
311,3.1099999999999777,-0.38923004,0.20952442,-1.7487606,0.9976957,1.8023579,0.6553057
312,3.1199999999999775,-0.39935255,0.26800343,-1.8913908,0.41905355,1.0538952,0.4503604
313,3.1299999999999772,-0.41990253,0.28294334,-1.8932202,0.04886922,0.7058548,0.3295618
314,3.139999999999977,-0.41990253,0.28294334,-1.8932202,-0.5375614,0.14905111,0.1423316
315,3.149999999999977,-0.41990253,0.28294334,-1.8932202,-0.5375614,0.14905111,0.1423316
316,3.1599999999999766,-0.49722412,0.27239394,-1.4085578,-1.1563679,-0.79381937,-0.035124753
317,3.1699999999999764,-0.5075906,0.2631251,-1.2389138,-1.2539536,-1.2118039,0.016187929
318,3.179999999999976,-0.50362694,0.28501663,-1.1134186,-1.2542591,-1.5827519,0.124005646
319,3.189999999999976,-0.4905774,0.32093337,-1.0231085,-1.2542591,-1.5827519,0.124005646
320,3.1999999999999758,-0.4656369,0.3637407,-0.957129,-1.1429288,-2.173764,0.28985557
321,3.2099999999999755,-0.41764635,0.41142645,-0.9094433,-1.0913107,-2.5248587,0.31490102
322,3.2199999999999753,-0.38703477,0.4147193,-0.8516961,-1.1096367,-2.818074,0.26832256
323,3.229999999999975,-0.37118018,0.40612125,-0.82754827,-1.1464413,-2.9391782,0.23304509
324,3.239999999999975,-0.30946928,0.3925229,-0.79803437,-1.2628112,-3.046385,0.14569137
325,3.2499999999999747,-0.27952853,0.36538717,-0.7998028,-1.4912748,-3.0709722,0.07849618
326,3.2599999999999745,-0.25367334,0.3773391,-0.76315427,-2.1762075,-3.2317827,-0.07803804
327,3.2699999999999743,-0.25367334,0.3773391,-0.76315427,-2.1762075,-3.2317827,-0.07803804
328,3.279999999999974,-0.24977067,0.310262,-0.57222855,-2.909093,-3.5417967,-0.2489276
329,3.289999999999974,-0.2815408,0.22818404,-0.26940596,-3.2334626,-3.6855028,-0.312763
330,3.2999999999999736,-0.2815408,0.22818404,-0.26940596,-3.2334626,-3.6855028,-0.312763
331,3.3099999999999734,-0.3242872,0.12171442,0.02872119,-3.2519412,-3.8722749,-0.24740042
332,3.319999999999973,-0.3003834,0.11762882,0.07774844,-3.1844406,-3.957185,-0.16462818
333,3.329999999999973,-0.23257454,0.10604277,0.12976366,-3.1395419,-4.203211,0.009162978
334,3.3399999999999728,-0.19275515,0.08945644,0.207817,-3.119078,-4.359134,0.07238753
335,3.3499999999999726,-0.15970443,0.069577225,0.32581168,-3.019507,-4.4183884,0.081855945
336,3.3599999999999723,-0.13445906,0.033599522,0.4556973,-2.826168,-4.4086146,0.10751228
337,3.369999999999972,-0.1323248,-0.015854584,0.51673746,-2.568841,-4.31164,0.1685988
338,3.379999999999972,-0.13476396,-0.036343586,0.5286284,-2.129171,-4.0937133,0.33078352
339,3.3899999999999717,-0.104701236,-0.015488708,0.41282898,-2.003638,-4.143957,0.4908302
340,3.3999999999999715,0.016647313,0.029879792,0.36270407,-2.2258403,-4.5246787,0.67073005
341,3.4099999999999713,0.15305771,0.064089105,0.44307464,-2.5361598,-4.8122435,0.6797403
342,3.419999999999971,0.25971028,0.1015913,0.5308846,-2.7294986,-4.947856,0.6081163
343,3.429999999999971,0.41520718,0.11079915,0.67321,-3.3148603,-5.378363,0.11209377
344,3.4399999999999706,0.39575478,0.06640632,0.8465128,-3.3148603,-5.378363,0.11209377
345,3.4499999999999704,0.2675156,-0.06262561,1.2727572,-3.193298,-5.050939,-0.15286903
346,3.45999999999997,0.19214535,-0.10171325,1.2310475,-2.8432722,-4.631428,-0.22937989
347,3.46999999999997,0.06591848,-0.22361061,1.0051806,-2.5266914,-4.2314634,-0.21197024
348,3.47999999999997,0.06768687,-0.23647723,0.9317616,-1.9625573,-3.1641293,0.16401732
349,3.4899999999999696,0.17348573,-0.21202457,0.6143041,-1.905136,-3.040887,0.6458373
350,3.4999999999999694,0.17348573,-0.21202457,0.6143041,-2.281429,-3.5056028,0.8668178
351,3.509999999999969,0.5832657,-0.18013246,0.51131034,-2.281429,-3.5056028,0.8668178
352,3.519999999999969,0.7704718,-0.14378887,0.68766207,-2.7491992,-4.520708,0.6968445
353,3.5299999999999687,0.8268775,-0.13189794,0.78992414,-2.7759244,-4.9018884,0.54412824
354,3.5399999999999685,0.8268775,-0.13189794,0.78992414,-2.7759244,-4.9018884,0.54412824
355,3.5499999999999683,0.89188135,-0.22330572,1.0280478,-2.4947736,-5.214651,0.011301007
356,3.559999999999968,0.8473665,-0.29440743,0.9846306,-2.4947736,-5.214651,0.011301007
357,3.569999999999968,0.78443605,-0.39996237,0.85468405,-2.3635902,-4.37181,-0.065973446
358,3.5799999999999677,0.82834107,-0.506432,0.71802974,-2.5485299,-4.252844,0.19058995
359,3.5899999999999674,0.9482261,-0.5730822,0.66497785,-2.854726,-4.4386997,0.42058071
360,3.5999999999999672,1.0966494,-0.61893857,0.66802675,-3.246596,-4.7558913,0.59315014
361,3.609999999999967,1.2887337,-0.6679048,0.84065884,-3.246596,-4.7558913,0.59315014
362,3.619999999999967,1.2887337,-0.6679048,0.84065884,-3.246596,-4.7558913,0.59315014
363,3.6299999999999666,1.2887337,-0.6679048,0.84065884,-3.246596,-4.7558913,0.59315014
364,3.6399999999999664,1.4729518,-0.6594897,1.2814163,-3.3901494,-5.318651,0.33643404
365,3.649999999999966,1.4562435,-0.58027774,1.5444194,-2.6551259,-4.817589,0.099265605
366,3.659999999999966,1.2925754,-0.6600995,1.2840383,-1.6288722,-4.013079,-0.071318515
367,3.6699999999999657,1.2298889,-0.6880889,1.1843374,-1.6288722,-4.013079,-0.071318515
368,3.6799999999999655,1.2517194,-0.7496779,1.0820143,-1.350623,-3.9246564,-0.0027488936
369,3.6899999999999653,1.2841604,-0.66869754,1.2079973,-0.40607268,-5.0419292,0.5853616
370,3.699999999999965,1.2841604,-0.66869754,1.2079973,-0.076816306,-5.4131823,0.7160868
371,3.709999999999965,1.3082471,-0.53240913,1.2538536,0.30634892,-5.6837955,0.8885035
372,3.7199999999999647,1.3808123,-0.4920409,1.2360477,0.47876564,-5.713117,0.99128157
373,3.7299999999999645,1.5323455,-0.3677044,1.1176262,0.3755294,-5.0825515,1.0528263
374,3.7399999999999642,1.5788116,-0.29227313,1.0021926,-0.030695979,-4.383569,0.892016
375,3.749999999999964,1.5435047,-0.28349215,0.9212733,-0.79534656,-3.4747543,0.57757306
376,3.759999999999964,1.4164851,-0.3055666,0.9626781,-1.5767959,-2.8171577,0.34605515
377,3.7699999999999636,1.2651348,-0.2983101,1.0824412,-2.0434968,-2.5981627,0.2565634
378,3.7799999999999634,1.2700741,-0.3038592,1.1770809,-2.435978,-2.5079072,0.23671028
379,3.789999999999963,1.2665373,-0.32422623,1.2040946,-2.6340508,-2.4933991,0.14110987
380,3.799999999999963,1.2768428,-0.33233646,1.399228,-2.8640418,-2.3718371,-0.054061573
381,3.8099999999999627,1.2234861,-0.37209487,1.5468585,-2.9987376,-1.9582813,-0.40042216
382,3.8199999999999625,1.1714097,-0.389352,1.5977153,-3.0057623,-1.7777706,-0.4905248
383,3.8299999999999623,0.93999386,-0.40032822,1.9400523,-2.7644706,-1.3639094,-0.6105598
384,3.839999999999962,0.90572363,-0.38416874,2.04329,-1.8286251,-1.278541,-0.50717086
385,3.849999999999962,0.901577,-0.36008197,2.105306,-1.0215194,-1.1391109,-0.44150287
386,3.8599999999999617,0.901577,-0.36008197,2.105306,-1.0215194,-1.1391109,-0.44150287
387,3.8699999999999615,0.860599,-0.34233707,1.9516991,-0.54199016,-0.9211848,-0.4027129
388,3.8799999999999613,0.8851126,-0.34709343,1.7912021,0.57894754,0.15195273,-0.14920384
389,3.889999999999961,0.8851126,-0.34709343,1.7912021,0.57894754,0.15195273,-0.14920384
390,3.899999999999961,0.9502994,-0.2977003,1.5743603,0.9757045,1.0775663,0.12110403
391,3.9099999999999606,1.0337799,-0.27404037,1.4950262,1.0757337,1.40667,0.17547104
392,3.9199999999999604,1.1190287,-0.26940596,1.4012403,1.1026118,1.7547104,0.1459968
393,3.92999999999996,1.1588482,-0.26391783,1.3659943,1.0722213,1.9350684,0.094989546
394,3.93999999999996,1.2634883,-0.25220984,1.3196502,0.883922,2.437505,-0.21670444
395,3.9499999999999598,1.2680618,-0.260503,1.3115399,0.8371908,2.54685,-0.30787608
396,3.9599999999999596,1.2622688,-0.283919,1.3166012,0.7704538,2.7122416,-0.43997568
397,3.9699999999999593,1.1986674,-0.35880142,1.3373951,0.6939429,3.0874658,-0.6290385
398,3.979999999999959,1.1769589,-0.41429248,1.3953253,0.7264715,3.186426,-0.6415612
399,3.989999999999959,1.1598847,-0.46112445,1.4274004,0.8136725,3.285844,-0.6084218
400,3.9999999999999587,1.1751906,-0.5131397,1.437462,0.91981035,3.4429893,-0.5374087
401,4.009999999999959,1.2189126,-0.5458855,1.4709395,1.03786,3.647629,-0.45555276
402,4.019999999999959,1.2566587,-0.57296026,1.4682564,1.3913983,4.491234,-0.2218968
403,4.0299999999999585,1.3612379,-0.62217045,1.4182534,1.3913983,4.491234,-0.2218968
404,4.039999999999958,1.428498,-0.65906286,1.340444,1.7337883,5.249165,-0.07727446
405,4.049999999999958,1.428498,-0.65906286,1.340444,1.7337883,5.249165,-0.07727446
406,4.059999999999958,1.4376448,-0.6855278,1.2721474,1.8568777,5.4599137,-0.033292156
407,4.069999999999958,1.4477065,-0.68607664,1.2425115,2.1094704,5.517793,0.057421334
408,4.079999999999957,1.4455111,-0.6623557,1.2027531,2.1094704,5.517793,0.057421334
409,4.089999999999957,1.3579451,-0.64528155,1.0764043,2.6458101,5.070792,0.061391957
410,4.099999999999957,1.3579451,-0.64528155,1.0764043,2.6458101,5.070792,0.061391957
411,4.109999999999957,1.3579451,-0.64528155,1.0764043,2.6458101,5.070792,0.061391957
412,4.119999999999957,1.2509266,-0.59881544,0.8769414,1.6073391,5.0179524,0.065973446
413,4.129999999999956,1.1805567,-0.59320533,0.9380426,0.95829487,5.486181,0.04046982
414,4.139999999999956,1.0881733,-0.5821681,1.0568299,0.6571383,5.937152,0.04886922
415,4.149999999999956,1.0132909,-0.5799119,1.1354932,0.65286225,6.274044,0.13316862
416,4.159999999999956,0.9110898,-0.5909491,1.229645,1.2250903,6.188981,0.4111123
417,4.1699999999999555,0.8976134,-0.5783264,1.249829,1.6641496,5.8636956,0.5510005
418,4.179999999999955,0.92804193,-0.5533859,1.2142172,2.29273,5.241682,0.70554936
419,4.189999999999955,0.9684711,-0.5202133,1.1470182,2.9206994,4.3241625,0.73899424
420,4.199999999999955,0.9632879,-0.4561242,1.0911003,3.2102497,3.6948185,0.6247624
421,4.209999999999955,0.9639587,-0.37215585,1.1198214,3.3229542,3.2349896,0.3912592
422,4.2199999999999545,0.8354146,-0.30428603,1.1171994,3.136182,3.3977852,-0.11957687
423,4.229999999999954,0.734677,-0.3125792,1.1576895,3.136182,3.3977852,-0.11957687
424,4.239999999999954,0.734677,-0.3125792,1.1576895,3.0395126,3.7985127,-0.24663684
425,4.249999999999954,0.61509687,-0.354106,1.1993992,3.3200526,4.9199085,-0.049938235
426,4.259999999999954,0.5529591,-0.41081664,0.9577998,3.3200526,4.9199085,-0.049938235
427,4.269999999999953,0.55234927,-0.32617757,0.7725451,3.4232888,5.266575,0.2857322
428,4.279999999999953,0.56735015,-0.2655643,0.6442449,3.3394475,5.3050594,0.32528573
429,4.289999999999953,0.56735015,-0.2655643,0.6442449,3.3394475,5.3050594,0.32528573
430,4.299999999999953,0.55186146,-0.14506944,0.56027657,3.1567988,5.1120257,0.18310685
431,4.3099999999999525,0.45008725,-0.08524887,0.56924057,3.1496212,4.862793,0.06291912
432,4.319999999999952,0.3141037,-0.071162686,0.5077735,3.1841352,4.624861,-0.09972375
433,4.329999999999952,0.2061096,-0.08695629,0.49466303,3.1876476,4.5173483,-0.12873985
434,4.339999999999952,0.1340322,-0.08695629,0.4861869,3.1972687,4.47245,-0.043982297
435,4.349999999999952,0.12769037,-0.079516836,0.38612008,3.2301028,4.5898886,0.062155537
436,4.3599999999999515,0.12110463,-0.053051874,0.29849303,3.2023084,4.646088,0.12904528
437,4.369999999999951,0.092078544,0.030672522,0.17433943,3.0790663,4.6599855,0.22235495
438,4.379999999999951,0.061162103,0.1062867,0.102445,2.937193,4.462676,0.23090707
439,4.389999999999951,0.015244792,0.17360769,0.07049192,2.8254044,3.9855902,0.0729984
440,4.399999999999951,-0.028965104,0.19342592,0.08878566,2.8254044,3.9855902,0.0729984
441,4.40999999999995,-0.08732217,0.24477036,-0.049332146,2.8150198,3.67298,-0.04444045
442,4.41999999999995,-0.074577525,0.26879618,-0.17574196,2.8150198,3.67298,-0.04444045
443,4.42999999999995,-0.074577525,0.26879618,-0.17574196,2.6021333,3.7044396,-0.12660182
444,4.43999999999995,-0.10195717,0.2587346,-0.354228,2.2090414,4.081038,-0.42180246
445,4.4499999999999496,-0.19129165,0.2151345,-0.41307288,2.2090414,4.081038,-0.42180246
446,4.459999999999949,-0.29556602,0.15415533,-0.5332628,2.265852,4.196186,-0.43783766
447,4.469999999999949,-0.38319308,0.102688916,-0.6105234,2.467132,4.007276,-0.26450464
448,4.479999999999949,-0.44740415,0.12592198,-0.8360854,2.676506,3.712381,-0.06261369
449,4.489999999999949,-0.5225305,0.1536675,-1.1461035,2.7516425,3.1528282,0.17027868
450,4.4999999999999485,-0.5108225,0.18684018,-1.3155036,2.6535985,2.764318,0.26908615
451,4.509999999999948,-0.5573496,0.2675156,-1.4407548,2.2800546,1.9440787,0.2762638
452,4.519999999999948,-0.570765,0.27727225,-1.4190463,2.0367775,1.4237741,0.24251351
453,4.529999999999948,-0.5459465,0.21208555,-1.4248393,1.7098118,0.956615,0.2191479
454,4.539999999999948,-0.56594765,0.16750978,-1.445938,1.3694072,0.77381355,0.22021692
455,4.549999999999947,-0.59649825,0.1565945,-1.4573412,0.8738427,0.6646214,0.26282477
456,4.559999999999947,-0.63332963,0.20171909,-1.4514261,0.4908302,0.5731443,0.31215215
457,4.569999999999947,-0.63765913,0.23489174,-1.431425,0.23808473,0.45081854,0.34406984
458,4.579999999999947,-0.63765913,0.23489174,-1.431425,0.23808473,0.45081854,0.34406984
459,4.589999999999947,-0.561984,0.30581054,-1.1893377,0.23808473,0.45081854,0.34406984
460,4.599999999999946,-0.6027791,0.3105669,-1.3057469,-0.43386704,-0.72036284,0.3043636
461,4.609999999999946,-0.49545574,0.3653262,-0.9998144,-0.37965274,-1.0667235,0.28771752
462,4.619999999999946,-0.47252756,0.38929102,-1.0189009,-0.4729624,-1.6276505,0.21853705
463,4.629999999999946,-0.46203914,0.45606318,-1.0328041,-0.4729624,-1.6276505,0.21853705
464,4.6399999999999455,-0.45234346,0.45923412,-0.9781668,-0.70341134,-1.8344283,0.11881329
465,4.649999999999945,-0.43947688,0.42392716,-0.92737114,-1.2290609,-1.8866574,-0.00045814895
466,4.659999999999945,-0.41971964,0.4019137,-0.840171,-1.2290609,-1.8866574,-0.00045814895
467,4.669999999999945,-0.41971964,0.4019137,-0.840171,-1.3883439,-1.875509,-0.010079277
468,4.679999999999945,-0.41185328,0.41508517,-0.70626074,-1.7385225,-2.087632,0.036193766
469,4.689999999999944,-0.34373957,0.4484408,-0.61534077,-1.7385225,-2.087632,0.036193766
470,4.699999999999944,-0.25830775,0.5155179,-0.5251526,-1.9152153,-2.7249172,-0.1469131
471,4.709999999999944,-0.26129574,0.51228595,-0.46521008,-1.9859229,-2.840218,-0.23991732
472,4.719999999999944,-0.33373898,0.38179058,-0.15927759,-2.1697934,-2.904206,-0.5589417
473,4.729999999999944,-0.45295325,0.25971028,-0.0049393126,-2.1697934,-2.904206,-0.5589417
474,4.739999999999943,-0.45295325,0.25971028,-0.0049393126,-2.1679606,-2.784629,-0.6058256
475,4.749999999999943,-0.758032,0.018476687,-0.011403104,-1.8794796,-2.2901337,-0.10567969
476,4.759999999999943,-0.52039623,-0.09524946,-0.21665898,-1.8478674,-2.1697934,0.18753563
477,4.769999999999943,-0.52039623,-0.09524946,-0.21665898,-1.9355265,-2.3211353,0.5119051
478,4.7799999999999425,-0.48393068,-0.02494048,-0.10116444,-1.7947221,-2.9452868,0.49571714
479,4.789999999999942,-0.5383241,-0.00073175,-0.041587792,-1.25319,-4.7068696,0.46609017
480,4.799999999999942,-0.61424315,0.009329813,0.042807378,-1.25319,-4.7068696,0.46609017
481,4.809999999999942,-0.61424315,0.009329813,0.042807378,-1.25319,-4.7068696,0.46609017
482,4.819999999999942,-0.6135114,0.01835473,0.111896776,-1.1795808,-5.704107,0.91828316
483,4.8299999999999415,-0.34965453,-0.047868647,0.37898555,-1.3208433,-5.319873,1.3330606
484,4.839999999999941,-0.077931374,-0.056344748,0.41642675,-1.406059,-4.610964,1.568091
485,4.849999999999941,-0.077931374,-0.056344748,0.41642675,-1.4605788,-3.755294,1.7918205
486,4.859999999999941,0.17263202,0.1348859,0.15049659,-1.7096591,-2.35626,2.1245892
487,4.869999999999941,0.26001516,0.19702369,0.04927117,-1.9575176,-2.2493587,2.0540345
488,4.87999999999994,0.32526287,0.32483602,-0.020854875,-2.6371052,-2.7791314,1.6543758
489,4.88999999999994,0.31660384,0.40776768,0.01603752,-3.0424144,-3.497509,1.3293955
490,4.89999999999994,0.31660384,0.40776768,0.01603752,-3.0424144,-3.497509,1.3293955
491,4.90999999999994,0.32568973,0.19873111,0.45630714,-3.8095083,-4.916702,0.7101309
492,4.9199999999999395,0.37532678,0.082199916,0.6346102,-3.938401,-5.0066514,0.6779077
493,4.929999999999939,0.42112213,-0.032014064,0.80510795,-4.0610323,-4.9473977,0.8211556
494,4.939999999999939,0.5488735,-0.10921369,0.9437745,-4.088063,-4.7580295,1.0062478
495,4.949999999999939,0.725835,-0.12372673,1.0963445,-3.9747474,-4.54499,1.0341948
496,4.959999999999939,0.83846354,-0.117689796,1.2396455,-3.360675,-3.984674,0.88529646
497,4.9699999999999385,0.7996198,-0.09201756,1.258427,-3.0488284,-3.8779254,0.8219192
498,4.979999999999938,0.65692854,-0.07043094,0.9857892,-2.0031798,-3.8127155,0.81245077
499,4.989999999999938,0.6418057,-0.10293283,0.758032,-1.768913,-4.12838,0.98761636
500,4.999999999999938,0.68003964,-0.13354437,0.5599107,-1.9329304,-4.405102,1.0917689
501,5.009999999999938,0.9205415,-0.19781642,0.5748506,-3.2517884,-5.2699347,1.3121386
502,5.019999999999937,1.1801298,-0.25160006,0.7803504,-3.709632,-5.436395,1.2744176
503,5.029999999999937,1.3681285,-0.29885888,1.0201205,-3.709632,-5.436395,1.2744176
504,5.039999999999937,1.3681285,-0.29885888,1.0201205,-4.0494256,-5.533981,1.0855075
505,5.049999999999937,1.4998436,-0.3632529,1.3477615,-3.9849794,-5.4437256,0.8359691
506,5.0599999999999365,1.4998436,-0.3632529,1.3477615,-3.9849794,-5.4437256,0.8359691
507,5.069999999999936,1.4998436,-0.3632529,1.3477615,-3.9849794,-5.4437256,0.8359691
508,5.079999999999936,1.2745256,-0.43953782,1.1061621,-1.4135422,-4.4758096,0.5766568
509,5.089999999999936,1.2745256,-0.43953782,1.1061621,-1.4135422,-4.4758096,0.5766568
510,5.099999999999936,1.3016003,-0.41417053,0.76845944,-1.6052011,-4.699692,0.97142845
511,5.1099999999999355,1.3494691,-0.41343874,0.7538245,-1.8081611,-4.808273,1.0403035
512,5.119999999999935,1.5796653,-0.3998404,0.8836491,-2.5428793,-5.0375004,1.0783299
513,5.129999999999935,1.6480839,-0.41380462,0.9692639,-2.781575,-4.9842024,0.99097615
514,5.139999999999935,1.6879644,-0.44380638,1.0971981,-2.8733573,-4.910593,0.8579602
515,5.149999999999935,1.7135756,-0.43502536,1.2143391,-2.7719538,-4.8614182,0.6443101
516,5.159999999999934,1.7136974,-0.4220978,1.2931242,-2.487596,-4.709771,0.43127087
517,5.169999999999934,1.6329001,-0.42843962,1.2836114,-2.262034,-4.5144467,0.34025195
518,5.179999999999934,1.5335041,-0.456612,1.1996433,-2.090228,-4.3182063,0.23777929
519,5.189999999999934,1.3287361,-0.49076036,1.1239071,-2.053729,-4.26445,0.20830505
520,5.199999999999934,1.3287361,-0.49076036,1.1239071,-2.120466,-4.4964266,0.40958515
521,5.209999999999933,1.3158695,-0.5198474,1.0637206,-2.120466,-4.4964266,0.40958515
522,5.219999999999933,1.3275164,-0.5177741,1.0711601,-2.2058344,-4.7994156,0.5288566
523,5.229999999999933,1.3275164,-0.5177741,1.0711601,-2.356718,-5.2203016,0.4868596
524,5.239999999999933,1.5663109,-0.5375314,1.1351881,-2.7904325,-5.697387,0.08231409
525,5.2499999999999325,1.5663109,-0.5375314,1.1351881,-2.7904325,-5.697387,0.08231409
526,5.259999999999932,1.5239913,-0.5798509,1.5489929,-3.233157,-5.166087,-0.29932398
527,5.269999999999932,1.4212414,-0.59149796,1.7410772,-3.1958942,-4.301713,-0.269697
528,5.279999999999932,1.2386088,-0.55393475,1.9507846,-3.0004175,-3.3579264,-0.1572978
529,5.289999999999932,1.2386088,-0.55393475,1.9507846,-2.5314255,-1.8472565,-0.02107485
530,5.299999999999931,1.1224436,-0.5066149,2.0503635,-2.5314255,-1.8472565,-0.02107485
531,5.309999999999931,0.9235295,-0.40581635,1.8921226,-1.4366024,0.88438016,0.22159137
532,5.319999999999931,0.89535713,-0.45630714,1.7580295,-1.0186177,1.6562084,0.4120286
533,5.329999999999931,0.97420317,-0.4591731,1.6219239,-0.46670106,2.1690297,0.66416323
534,5.339999999999931,1.1023204,-0.43423265,1.5610057,0.16783522,2.1612413,0.88346386
535,5.34999999999993,1.2181199,-0.41526812,1.4732567,0.5569564,2.0306687,0.93660915
536,5.35999999999993,1.3822148,-0.37075335,1.3681285,1.2470814,1.7359263,0.8197812
537,5.36999999999993,1.4559387,-0.33416584,1.2329378,1.5555683,1.6482671,0.5554292
538,5.37999999999993,1.4277052,-0.3264215,1.1248218,1.5858061,1.6994271,0.34132096
539,5.3899999999999295,1.3643479,-0.33331212,1.0809166,1.4888313,1.8608483,0.17608191
540,5.399999999999929,1.2920266,-0.35264254,1.1106745,1.2005029,2.3787093,-0.008857546
541,5.409999999999929,1.2920266,-0.35264254,1.1106745,1.2005029,2.3787093,-0.008857546
542,5.419999999999929,1.2920266,-0.35264254,1.1106745,1.134224,2.6125178,-0.08979719
543,5.429999999999929,1.3767267,-0.39764515,1.1953746,1.1128438,2.741716,-0.16997325
544,5.4399999999999284,1.4438647,-0.4288055,1.2281204,1.0882565,2.8377745,-0.27076602
545,5.449999999999928,1.4947214,-0.45124584,1.2766598,1.0827587,3.0024028,-0.3950771
546,5.459999999999928,1.5336261,-0.50496846,1.3128206,1.1107057,3.50881,-0.5878051
547,5.469999999999928,1.4860014,-0.6771737,1.3519691,1.1722504,4.258647,-0.5697846
548,5.479999999999928,1.4397181,-0.72662777,1.3798976,1.2968669,4.6880856,-0.45204028
549,5.489999999999927,1.4206927,-0.7602883,1.4059356,1.6039795,5.07965,-0.2657264
550,5.499999999999927,1.428132,-0.7738866,1.4003257,1.9507982,5.2468743,-0.10888673
551,5.509999999999927,1.5272232,-0.76358116,1.3788,2.4236078,5.2818465,0.060322944
552,5.519999999999927,1.5272232,-0.76358116,1.3788,2.7563767,5.2694764,0.16157386
553,5.5299999999999265,1.7385161,-0.7393724,1.2397674,3.0141618,5.2931476,0.24877487
554,5.539999999999926,1.8402904,-0.7135782,1.1868376,3.0141618,5.2931476,0.24877487
555,5.549999999999926,1.8402904,-0.7135782,1.1868376,3.0141618,5.2931476,0.24877487
556,5.559999999999926,2.0243864,-0.61363333,1.1431155,2.8951957,5.7413697,0.106595986
557,5.569999999999926,2.0347528,-0.591254,1.1132356,2.7432432,6.3221498,-0.23441954
558,5.5799999999999255,1.8633405,-0.6260731,1.0725017,2.6992607,6.6900434,-0.5175556
559,5.589999999999925,1.648023,-0.67607605,1.0899417,2.9955304,6.4061437,-0.53038377
560,5.599999999999925,1.4611828,-0.68741816,1.1106136,2.9955304,6.4061437,-0.53038377
561,5.609999999999925,1.384532,-0.6737588,1.1131138,3.1089988,6.2520533,-0.4642576
562,5.619999999999925,1.2883679,-0.5417999,1.0963445,3.3812919,5.457165,-0.11911872
563,5.629999999999924,1.3314191,-0.49569967,1.1059792,3.3551774,5.4851117,-0.10476339
564,5.639999999999924,1.334712,-0.4689298,1.0983567,3.3551774,5.4851117,-0.10476339
565,5.649999999999924,1.2630005,-0.4693567,1.1045157,3.3626604,5.7632084,-0.26847526
566,5.659999999999924,1.2630005,-0.4693567,1.1045157,3.3626604,5.7632084,-0.26847526
567,5.6699999999999235,1.0440243,-0.45862433,1.0621961,3.760181,5.765957,-0.1693624
568,5.679999999999923,1.0134128,-0.41118255,1.0218279,3.760181,5.765957,-0.1693624
569,5.689999999999923,0.9615805,-0.354228,0.9552996,4.171599,5.2328243,-0.08017606
570,5.699999999999923,0.8865151,-0.30763993,0.88090503,4.231769,5.081788,-0.11102476
571,5.709999999999923,0.82876784,-0.27940655,0.6899183,4.203822,4.960684,-0.18524489
572,5.7199999999999225,0.7935219,-0.27471116,0.5496662,3.9078577,4.920825,-0.23839016
573,5.729999999999922,0.76974,-0.24245316,0.47496673,3.5804338,5.0115385,-0.28603765
574,5.739999999999922,0.8003516,-0.18580353,0.44630653,3.2467487,5.2215233,-0.4615087
575,5.749999999999922,0.7711426,-0.13165402,0.36343583,3.0286698,5.317582,-0.58078015
576,5.759999999999922,0.6650388,-0.14567922,0.30654228,2.5465446,5.4938164,-0.7130325
577,5.769999999999921,0.5744238,-0.13976426,0.34599578,2.3718371,5.604994,-0.72189003
578,5.779999999999921,0.4674663,-0.10921369,0.35087416,2.4152086,5.6505036,-0.64843345
579,5.789999999999921,0.38965687,-0.08415125,0.26940596,2.5121834,5.5451293,-0.54336464
580,5.799999999999921,0.32099435,-0.09494456,0.21915914,2.6041186,5.4432673,-0.43585235
581,5.809999999999921,0.30117613,-0.04610025,0.15494807,2.886949,5.3878317,-0.3213151
582,5.81999999999992,0.319043,0.041221917,-0.15927759,3.1050282,5.1428747,-0.23701571
583,5.82999999999992,0.2860533,0.08213894,-0.254649,3.0358477,4.962822,-0.31749722
584,5.83999999999992,0.242941,0.08470006,-0.28093103,3.0482175,4.880966,-0.43569964
585,5.84999999999992,0.08213894,0.110616215,-0.3978281,3.1422908,4.660444,-0.5112942
586,5.8599999999999195,0.08213894,0.110616215,-0.3978281,3.1422908,4.660444,-0.5112942
587,5.869999999999919,-0.12988563,0.09049308,-0.63558584,3.242931,4.077831,-0.42256603
588,5.879999999999919,-0.22141537,0.12799528,-0.7690083,3.2688925,3.8229475,-0.34193182
589,5.889999999999919,-0.22141537,0.12799528,-0.7690083,3.2688925,3.8229475,-0.34193182
590,5.899999999999919,-0.33611718,0.16885132,-1.1746417,2.771801,3.2000177,-0.19685133
591,5.909999999999918,-0.3749609,0.18787682,-1.2522682,2.4927883,3.0079005,-0.20387627
592,5.919999999999918,-0.46874684,0.20617057,-1.2914778,2.0094411,2.5042422,-0.2415972
593,5.929999999999918,-0.5100907,0.18836464,-1.290685,1.7905988,1.9877555,-0.27763826
594,5.939999999999918,-0.56485003,0.16555844,-1.3109301,1.7305813,1.536937,-0.32375857
595,5.949999999999918,-0.65906286,0.14391084,-1.3316021,1.6830865,0.87872964,-0.33124167
596,5.959999999999917,-0.6894305,0.15189911,-1.3719703,1.6830865,0.87872964,-0.33124167
597,5.969999999999917,-0.73803085,0.11250656,-1.5575908,1.0164797,0.18753563,-0.23839016
598,5.979999999999917,-0.7603492,0.117811754,-1.5233206,0.32330042,0.11728613,-0.16417004
599,5.989999999999917,-0.7765087,0.11903133,-1.4147776,-0.15225816,0.09239337,-0.08628472
600,5.9999999999999165,-0.74888515,0.12592198,-1.3064177,-0.5320636,-0.007330383,0.04260785
601,6.009999999999916,-0.71876144,0.12823918,-1.2452556,-0.64828074,-0.09101892,0.12293663
602,6.019999999999916,-0.71876144,0.12823918,-1.2452556,-0.64828074,-0.09101892,0.12293663
603,6.029999999999916,-0.71876144,0.12823918,-1.2452556,-0.64828074,-0.09101892,0.12293663
604,6.039999999999916,-0.512164,0.33300725,-1.1633605,-0.16523905,-1.9339994,0.5777258
605,6.0499999999999154,-0.33715382,0.41484126,-1.217632,-0.19547687,-2.417652,0.5366451
606,6.059999999999915,-0.33715382,0.41484126,-1.217632,-0.40973786,-2.6267207,0.37232238
607,6.069999999999915,-0.061162103,0.46966153,-1.3607501,-0.9943359,-2.6261096,-0.004581489
608,6.079999999999915,-0.076406896,0.4237442,-1.3662382,-1.651016,-2.5135577,-0.35537085
609,6.089999999999915,-0.15933856,0.33831242,-1.2592808,-2.484847,-2.44621,-0.7021896
610,6.099999999999914,-0.21739073,0.2734306,-1.167934,-2.8987083,-2.5137105,-0.8428413
611,6.109999999999914,-0.31605503,0.15988737,-0.9813987,-3.4530685,-2.844494,-0.9379836
612,6.119999999999914,-0.3743511,0.04317325,-0.7826676,-3.6844337,-3.2742376,-0.81397796
613,6.129999999999914,-0.36788732,-0.013842272,-0.6610752,-3.7975965,-3.6871827,-0.61850107
614,6.1399999999999135,-0.34550798,-0.064942814,-0.52375007,-3.8657079,-4.0814962,-0.40210205
615,6.149999999999913,-0.31946984,-0.11348223,-0.3664848,-3.873191,-4.393648,-0.17073683
616,6.159999999999913,-0.23220867,-0.18915738,-0.1243975,-3.738648,-4.670523,0.21533
617,6.169999999999913,-0.11586042,-0.22940363,0.015122834,-3.1450398,-4.7685666,0.6440047
618,6.179999999999913,0.10348164,-0.2013532,0.1422644,-2.828917,-4.8725667,0.75411314
619,6.1899999999999125,0.10348164,-0.2013532,0.1422644,-2.828917,-4.8725667,0.75411314
620,6.199999999999912,0.13610551,-0.17440042,0.13006857,-2.6116016,-5.138446,0.82253003
621,6.209999999999912,0.17927876,-0.21293926,0.324897,-2.3144157,-6.189592,1.0209086
622,6.219999999999912,0.17927876,-0.21293926,0.324897,-2.3144157,-6.189592,1.0209086
623,6.229999999999912,0.35508168,-0.21214652,0.5410682,-1.7244726,-6.9114823,1.4068227
624,6.239999999999911,0.35508168,-0.21214652,0.5410682,-1.7244726,-6.9114823,1.4068227
625,6.249999999999911,0.75473917,-0.20720722,0.39154723,-1.8272507,-6.568939,1.5845845
626,6.259999999999911,0.8720631,-0.23403804,0.3257507,-2.2999077,-6.23388,1.5300647
627,6.269999999999911,1.0156081,-0.298554,0.2856264,-3.1105258,-5.864459,1.412015
628,6.2799999999999105,1.0546347,-0.32117727,0.30044436,-3.4649804,-5.769164,1.3642148
629,6.28999999999991,1.2034239,-0.40380403,0.53442144,-4.4396157,-5.843995,1.1687379
630,6.29999999999991,1.2550122,-0.41496322,0.8976134,-4.4396157,-5.843995,1.1687379
631,6.30999999999991,1.2553172,-0.38508344,1.0936004,-4.711451,-6.2161646,0.79045963
632,6.31999999999991,1.2643421,-0.43215933,1.1440302,-4.438394,-6.22319,0.61850107
633,6.3299999999999095,1.2691594,-0.45709983,1.1151261,-4.4289255,-6.1437774,0.5888741
634,6.339999999999909,1.2857457,-0.61924344,1.1133577,-4.4289255,-6.1437774,0.5888741
635,6.349999999999909,1.2955024,-0.62991476,1.2680618,-4.6500587,-5.0029864,0.4457789
636,6.359999999999909,1.2924535,-0.6238779,1.3245285,-4.3171372,-4.581184,0.35934147
637,6.369999999999909,1.2423285,-0.6010107,1.4031916,-3.5778377,-4.4069347,0.21899518
638,6.379999999999908,1.2372674,-0.58021677,1.3633722,-2.6022859,-4.6266932,0.23090707
639,6.389999999999908,1.3175159,-0.59107107,1.188423,-1.9378172,-4.9383874,0.32925636
640,6.399999999999908,1.4469137,-0.6295489,0.94017684,-1.5118915,-5.2590914,0.39935315
641,6.409999999999908,1.4965508,-0.6427204,0.8560255,-2.0060816,-5.7688584,0.3323107
642,6.419999999999908,1.6279609,-0.6411349,0.77839905,-2.0060816,-5.7688584,0.3323107
643,6.429999999999907,1.6500962,-0.6383299,0.8565744,-2.4141395,-5.710521,0.27687466
644,6.439999999999907,1.6489376,-0.61527985,1.2071435,-2.694832,-4.978857,0.18891008
645,6.449999999999907,1.630522,-0.61088926,1.2409871,-2.5711317,-4.820643,0.18417588
646,6.459999999999907,1.5910075,-0.5874123,1.1833007,-1.9187278,-4.4307585,0.19394971
647,6.4699999999999065,1.5811288,-0.6064378,1.0547566,-1.5728253,-4.3553166,0.21181752
648,6.479999999999906,1.6139966,-0.6105234,0.9377376,-1.5728253,-4.3553166,0.21181752
649,6.489999999999906,1.6617433,-0.6141212,0.7925463,-1.1855367,-4.6456304,0.34147367
650,6.499999999999906,1.6617433,-0.6141212,0.7925463,-1.1855367,-4.6456304,0.34147367
651,6.509999999999906,1.6617433,-0.6141212,0.7925463,-1.1855367,-4.6456304,0.34147367
652,6.519999999999905,1.7862018,-0.53314084,0.87657547,-1.7322611,-5.494733,0.4894558
653,6.529999999999905,1.8554131,-0.5205182,1.0223768,-1.9633209,-5.3620224,0.42638394
654,6.539999999999905,1.9055381,-0.49655336,1.1142114,-2.211485,-4.9842024,0.27030787
655,6.549999999999905,1.847242,-0.49161404,1.2368405,-2.4672847,-4.395328,0.102319926
656,6.559999999999905,1.5909464,-0.58515614,1.2841604,-2.820365,-3.4497087,-0.2499966
657,6.569999999999904,1.5909464,-0.58515614,1.2841604,-3.0488284,-2.9362764,-0.410196
658,6.579999999999904,1.3936789,-0.6676609,1.320199,-3.4891095,-2.528066,-0.6385069
659,6.589999999999904,1.2903192,-0.6914428,1.3891664,-3.4891095,-2.528066,-0.6385069
660,6.599999999999904,1.1543967,-0.7621786,1.767786,-3.6974146,-2.7026205,-0.59498274
661,6.6099999999999035,1.059757,-0.73986024,2.0628643,-3.5747833,-2.006845,-0.29000828
662,6.619999999999903,1.059757,-0.73986024,2.0628643,-3.5747833,-2.006845,-0.29000828
663,6.629999999999903,0.7626055,-0.56393534,2.330136,-1.9136881,-0.7113526,0.3107777
664,6.639999999999903,0.7626055,-0.56393534,2.330136,-1.9136881,-0.7113526,0.3107777
665,6.649999999999903,0.7850458,-0.47966215,2.2810478,-1.2718215,-0.41279218,0.54367006
666,6.659999999999902,1.1332978,-0.3715461,1.896818,0.4859433,0.73884153,0.93783087
667,6.669999999999902,1.2723303,-0.3406906,1.6677803,0.4859433,0.73884153,0.93783087
668,6.679999999999902,1.372702,-0.32745814,1.5112467,0.97081757,1.2557862,0.9326385
669,6.689999999999902,1.372702,-0.32745814,1.5112467,1.212262,1.6148223,0.8483391
670,6.699999999999902,1.4006914,-0.31855518,1.3418466,1.5735888,1.7763962,0.4474588
671,6.709999999999901,1.3578231,-0.34672755,1.3061738,1.7817413,1.6320792,0.22907446
672,6.719999999999901,1.3262359,-0.3849005,1.3145889,1.9816469,1.5598444,0.074067414
673,6.729999999999901,1.3447126,-0.40441385,1.2809284,2.0899227,1.5787812,-0.036651913
674,6.739999999999901,1.3823978,-0.41441444,1.2740988,2.0874794,1.6980526,-0.17547104
675,6.7499999999999005,1.393252,-0.40758476,1.2541586,1.9130772,2.0347922,-0.3454443
676,6.7599999999999,1.4188633,-0.44740415,1.2505608,1.5505288,2.591443,-0.4552473
677,6.7699999999999,1.4431939,-0.5046636,1.2899534,1.2244794,3.1312952,-0.4802928
678,6.7799999999999,1.4507554,-0.59838855,1.3711165,0.8588765,3.944357,-0.41508293
679,6.7899999999999,1.4772813,-0.6832715,1.4499016,0.7761043,4.2954516,-0.34483343
680,6.7999999999998995,1.6200335,-0.8315119,1.5974102,0.98975444,5.2786393,-0.042913284
681,6.809999999999899,1.6200335,-0.8315119,1.5974102,1.3518448,5.874386,0.10369437
682,6.819999999999899,1.7169905,-0.91456556,1.5009413,1.3518448,5.874386,0.10369437
683,6.829999999999899,1.7169905,-0.91456556,1.5009413,1.6681203,6.2378507,0.26710084
684,6.839999999999899,1.8259602,-0.93133485,1.3867272,2.6360362,6.5961227,0.56153786
685,6.849999999999898,1.8432173,-0.9312738,1.3674577,2.9651399,6.6055913,0.6247624
686,6.859999999999898,1.890598,-0.9336521,1.3089788,3.5262196,6.529844,0.6969972
687,6.869999999999898,1.9049891,-0.9224319,1.2783062,3.994906,6.430273,0.6979135
688,6.879999999999898,1.8990742,-0.8911496,1.1657388,4.568203,6.3337564,0.61758476
689,6.8899999999998975,1.8958422,-0.86480653,1.0299382,4.904179,6.2233424,0.51007247
690,6.899999999999897,1.8327289,-0.82035273,0.87767315,5.0471215,6.0532165,0.37827832
691,6.909999999999897,1.7438213,-0.720042,0.73717713,4.919145,5.7908497,0.18768835
692,6.919999999999897,1.721259,-0.62284124,0.6947966,4.62593,5.699678,-0.019242255
693,6.929999999999897,1.6144235,-0.5404583,0.60259616,4.275751,5.796042,-0.18829921
694,6.9399999999998965,1.4776472,-0.49515083,0.5582643,3.7274997,5.987701,-0.30757064
695,6.949999999999896,1.4091066,-0.4531362,0.56485003,3.3976326,6.0538273,-0.33307427
696,6.959999999999896,1.2916607,-0.3588624,0.5537518,2.708271,6.019008,-0.34345898
697,6.969999999999896,1.2366575,-0.3041031,0.56271577,2.182316,5.9557834,-0.397826
698,6.979999999999896,1.2366575,-0.3041031,0.56271577,2.182316,5.9557834,-0.397826
699,6.989999999999895,1.2366575,-0.3041031,0.56271577,2.182316,5.9557834,-0.397826
700,6.999999999999895,0.95176286,-0.2903828,0.97395927,0.91553426,5.8583503,-0.65133506
701,7.009999999999895,0.6654047,-0.3732535,1.2011067,1.0231993,5.5991907,-0.52122074
702,7.019999999999895,0.4804549,-0.46917373,1.2779404,1.406059,5.2700872,-0.19318613
703,7.0299999999998946,0.42746398,-0.5089321,1.2895874,1.7974709,5.0668216,0.15882497
704,7.039999999999894,0.41417053,-0.52942115,1.3106252,2.0760255,5.0237556,0.35643986
705,7.049999999999894,0.49618748,-0.5071027,1.2892826,2.7108672,4.9134946,0.64721173
706,7.059999999999894,0.54100716,-0.5166765,1.2459873,3.2333097,4.9182286,0.7483099
707,7.069999999999894,0.61631644,-0.5052734,1.1617751,3.6599991,5.0501757,0.72234815
708,7.0799999999998935,0.59296143,-0.4984437,1.0567081,4.0894375,5.162728,0.65484756
709,7.089999999999893,0.59174186,-0.50356597,0.98804545,4.607451,5.2317553,0.5917757
710,7.099999999999893,0.52216464,-0.5306407,0.89169836,5.426163,5.2123604,0.54321194
711,7.109999999999893,0.43075684,-0.53984857,0.77492326,6.4020205,4.9086075,0.6081163
712,7.119999999999893,0.3061764,-0.54637337,0.6568066,7.4394226,4.344168,0.7441866
713,7.129999999999892,0.20184104,-0.5497882,0.41404852,8.212778,3.8562396,0.894154
714,7.139999999999892,0.21982989,-0.54234874,0.1203119,8.709258,3.382208,1.0277808
715,7.149999999999892,0.5858269,-0.40484068,-0.7007726,8.709258,3.382208,1.0277808
716,7.159999999999892,0.5858269,-0.40484068,-0.7007726,8.169406,3.6337318,0.8349001
717,7.169999999999892,0.8232798,-0.037624147,-1.5240524,5.1390567,5.216942,-0.82634795
718,7.179999999999891,0.8232798,-0.037624147,-1.5240524,5.1390567,5.216942,-0.82634795
719,7.189999999999891,0.4170365,0.13714215,-1.8577303,2.107638,6.079331,-2.2449298
720,7.199999999999891,0.23074517,0.118055664,-1.8364487,1.1285735,6.233727,-2.5978572
721,7.209999999999891,-0.16439983,0.012927583,-1.7894336,1.1285735,6.233727,-2.5978572
722,7.2199999999998905,-0.16439983,0.012927583,-1.7894336,-0.35323283,6.2958827,-2.9475775
723,7.22999999999989,-0.4905774,-0.053600688,-1.6919888,-1.1339186,6.1007113,-2.8354838
724,7.23999999999989,-0.6805275,-0.053478733,-1.6095451,-1.4205672,5.7002892,-2.5201247
725,7.24999999999989,-0.8252311,-0.09287128,-1.4433769,-1.4194981,4.7589455,-1.8971947
726,7.25999999999989,-0.8252311,-0.09287128,-1.4433769,-1.2559389,4.037972,-1.48089
727,7.269999999999889,-0.73754305,-0.024635585,-1.176776,0.10308351,1.263422,-0.056505036
728,7.279999999999889,-0.56942344,-0.00030489583,-1.1904963,0.7472409,0.096516706,0.47235155
729,7.289999999999889,-0.45923412,0.06457694,-1.2335476,1.1388055,-0.5852089,0.8005389
730,7.299999999999889,-0.4072189,0.10957957,-1.2935511,1.2353222,-0.8162687,0.9282097
731,7.309999999999889,-0.3506302,0.16403395,-1.4295957,1.2353222,-0.8162687,0.9282097
732,7.319999999999888,-0.3506302,0.16403395,-1.4295957,0.787558,-1.1557571,1.0612257
733,7.329999999999888,-0.2651374,0.34788615,-1.4120336,0.35185838,-1.274723,0.95142263
734,7.339999999999888,-0.27647954,0.39130333,-1.3775804,-0.29825497,-1.6736181,0.57451874
735,7.349999999999888,-0.27647954,0.39130333,-1.3775804,-0.29825497,-1.6736181,0.57451874
736,7.3599999999998875,-0.27580878,0.4437454,-1.2748915,-0.90408057,-2.1137464,0.23732115
737,7.369999999999887,-0.26410076,0.4344156,-1.1718366,-1.4714217,-2.341141,-0.07971791
738,7.379999999999887,-0.2523318,0.40856043,-1.0632328,-1.4714217,-2.341141,-0.07971791
739,7.389999999999887,-0.24897793,0.34764224,-0.9230417,-1.8445076,-2.3780985,-0.30818152
740,7.399999999999887,-0.25544173,0.27629662,-0.8209015,-1.9423988,-2.366492,-0.36636642
741,7.4099999999998865,-0.2883705,0.24050182,-0.8207796,-2.26463,-2.3518312,-0.55939984
742,7.419999999999886,-0.2883705,0.24050182,-0.8207796,-2.44285,-2.4433084,-0.56001073
743,7.429999999999886,-0.31154257,0.12482436,-0.82059664,-2.6181684,-2.6407704,-0.49678615
744,7.439999999999886,-0.30306646,0.11573846,-0.7857775,-2.7052166,-2.835331,-0.43295074
745,7.449999999999886,-0.30306646,0.11573846,-0.7857775,-2.7052166,-2.835331,-0.43295074
746,7.459999999999885,-0.30306646,0.11573846,-0.7857775,-2.7052166,-2.835331,-0.43295074
747,7.469999999999885,-0.30306646,0.11573846,-0.7857775,-2.7052166,-2.835331,-0.43295074
748,7.479999999999885,-0.15555786,0.027196707,-0.41624376,-2.8359418,-4.3907466,-0.12996158
749,7.489999999999885,-0.15555786,0.027196707,-0.41624376,-2.8359418,-4.3907466,-0.12996158
750,7.4999999999998845,-0.10134738,-0.073175006,-0.22153732,-3.0502028,-5.319109,0.21746802
751,7.509999999999884,-0.059027832,-0.12055582,-0.18153499,-3.220787,-5.4249415,0.41981715
752,7.519999999999884,0.002927,-0.17366867,-0.15586275,-3.4542902,-5.45411,0.5910121
753,7.529999999999884,0.058905877,-0.22001283,-0.11817763,-3.7357464,-5.448307,0.7360926
754,7.539999999999884,0.20860973,-0.275199,0.008720021,-3.9968913,-5.5072556,0.84223044
755,7.5499999999998835,0.31221333,-0.2798334,0.18086421,-4.164421,-5.7619863,0.93401295
756,7.559999999999883,0.41441444,-0.27093044,0.3416053,-4.1523566,-5.9206586,0.9457721
757,7.569999999999883,0.60113263,-0.22647662,0.6085111,-3.773162,-6.568939,0.8516989
758,7.579999999999883,0.68705225,-0.20299964,0.6300368,-3.503312,-7.039764,0.7696902
759,7.589999999999883,0.8865761,-0.35599637,0.55838627,-3.9391646,-7.0915346,0.6081163
760,7.599999999999882,0.92865175,-0.45777062,0.65363574,-4.377155,-6.6269717,0.53130007
761,7.609999999999882,0.91468745,-0.5224695,0.87017274,-4.377155,-6.6269717,0.53130007
762,7.619999999999882,0.919139,-0.5161277,1.0085344,-4.7271805,-5.174334,0.46807548
763,7.629999999999882,0.9610317,-0.538568,1.071587,-4.7271805,-5.174334,0.46807548
764,7.6399999999998816,1.0656109,-0.48710158,1.1158578,-3.9709296,-5.257412,0.47678033
765,7.649999999999881,1.1629947,-0.47704002,1.0178033,-3.6893206,-5.6500454,0.39461896
766,7.659999999999881,1.2797698,-0.54551965,0.8829174,-3.6760342,-6.0576453,0.3352123
767,7.669999999999881,1.3936789,-0.6433302,0.85840374,-4.019646,-6.437145,0.29917124
768,7.679999999999881,1.3936789,-0.6433302,0.85840374,-4.390594,-6.465092,0.30665436
769,7.6899999999998805,1.4756349,-0.7605322,1.217388,-4.633413,-6.094297,0.28771752
770,7.69999999999988,1.4672807,-0.7382138,1.3603233,-4.5161266,-5.68853,0.21945333
771,7.70999999999988,1.3403221,-0.59765685,1.6482668,-3.5581374,-4.822323,-0.07651087
772,7.71999999999988,1.2120829,-0.6057671,1.5067343,-2.6702447,-4.5045204,-0.24236079
773,7.72999999999988,1.1312245,-0.75004375,1.194338,-1.9559906,-4.5304823,-0.21685717
774,7.739999999999879,1.1598238,-0.875173,0.8896251,-1.8238909,-4.8345404,-0.001985312
775,7.749999999999879,1.2390966,-0.89535713,0.8190721,-1.9569068,-5.3230796,0.33078352
776,7.759999999999879,1.750468,-0.723152,1.1076256,-2.5773933,-6.3439884,0.9317222
777,7.769999999999879,1.750468,-0.723152,1.1076256,-2.5773933,-6.3439884,0.9317222
778,7.779999999999879,1.750468,-0.723152,1.1076256,-2.5773933,-6.3439884,0.9317222
779,7.789999999999878,1.9416987,-0.5339336,1.5233816,-2.3215933,-5.2934527,0.45066583
780,7.799999999999878,1.8487054,-0.4411843,1.6070449,-1.9845484,-4.8021646,0.2049453
781,7.809999999999878,1.4710004,-0.53515315,1.3076372,-0.52824575,-3.896404,-0.12492194
782,7.819999999999878,1.3887396,-0.5317993,1.1484207,-0.066737026,-3.988492,0.04230242
783,7.8299999999998775,1.3737997,-0.5247867,0.92792004,-0.066737026,-3.988492,0.04230242
784,7.839999999999877,1.3737997,-0.5247867,0.92792004,0.18845193,-4.3460007,0.67057735
785,7.849999999999877,1.5557615,-0.48710158,0.6378421,-0.23732115,-4.35944,0.80863285
786,7.859999999999877,1.5553347,-0.50185853,0.591254,-0.659429,-4.2546763,0.7725918
787,7.869999999999877,1.5111858,-0.5177131,0.6583921,-1.6823229,-3.8658607,0.70570207
788,7.879999999999876,1.4530725,-0.5485686,0.8125474,-2.397188,-3.598149,0.6817256
789,7.889999999999876,1.3425784,-0.58997345,0.86748964,-2.7207937,-3.5624135,0.6722572
790,7.899999999999876,1.2681228,-0.6666852,1.1020765,-3.055548,-3.7607918,0.7699956
791,7.909999999999876,1.2681228,-0.6666852,1.1020765,-3.1277828,-4.333478,0.89552844
792,7.919999999999876,1.2611102,-0.8317558,1.3160524,-3.1227431,-4.5459065,0.9379836
793,7.929999999999875,1.2729402,-0.85700125,1.4685003,-3.1193833,-4.582558,0.8355109
794,7.939999999999875,1.2729402,-0.85700125,1.4685003,-3.1193833,-4.582558,0.8355109
795,7.949999999999875,1.2729402,-0.85700125,1.4685003,-3.1193833,-4.582558,0.8355109
796,7.959999999999875,1.282331,-0.28288236,2.1988478,-0.66767573,-1.3684908,0.50732356
797,7.9699999999998745,1.3169061,-0.22458628,2.0668888,0.21120666,-0.08277224,0.38896844
798,7.979999999999874,1.3196502,-0.22306179,1.7886409,0.21120666,-0.08277224,0.38896844
799,7.989999999999874,1.3196502,-0.22306179,1.7886409,0.9089675,1.8240436,0.06994407
800,7.999999999999874,1.3794098,-0.29026082,1.2525731,0.9089675,1.8240436,0.06994407
801,8.009999999999874,1.3434931,-0.3466056,1.0765262,0.8856019,2.4985917,-0.16798794
802,8.019999999999873,1.2926974,-0.38660794,1.0106688,0.8901834,2.3961189,-0.1797471
803,8.029999999999873,1.2926974,-0.38660794,1.0106688,0.9560041,2.1218405,-0.16966783
804,8.039999999999873,1.2398285,-0.29428545,1.0280478,1.0958922,1.6174184,-0.182496
805,8.049999999999873,1.2861725,-0.28812656,1.0230476,1.1403327,1.3075571,-0.26053402
806,8.059999999999873,1.3602014,-0.34623972,1.0103638,0.91354895,1.1102476,-0.6036876
807,8.069999999999872,1.3740436,-0.3855713,1.0163398,0.68584895,1.1988231,-0.7510588
808,8.079999999999872,1.3274555,-0.4124021,1.1098208,0.29138273,1.4964671,-0.9236283
809,8.089999999999872,1.2581831,-0.4374036,1.182508,0.060322944,1.9611828,-0.97219205
810,8.099999999999872,1.2581831,-0.4374036,1.182508,0.060322944,1.9611828,-0.97219205
811,8.109999999999872,1.2404993,-0.5341165,1.4510603,-0.027030786,2.9982793,-0.8045095
812,8.119999999999871,1.2404993,-0.5341165,1.4510603,0.4578435,3.7782016,-0.5233588
813,8.129999999999871,1.3194673,-0.56527686,1.466366,0.8008443,3.9892554,-0.39599338
814,8.139999999999871,1.4613657,-0.5822291,1.5211253,1.1769847,4.0990586,-0.3304781
815,8.14999999999987,1.5331992,-0.5969251,1.5156982,1.5555683,4.2723913,-0.36545014
816,8.15999999999987,1.6334491,-0.6964431,1.442828,2.3751967,5.033988,-0.55680364
817,8.16999999999987,1.621802,-0.75864184,1.3733119,2.3751967,5.033988,-0.55680364
818,8.17999999999987,1.5917392,-0.8098033,1.2932462,2.957046,5.179221,-0.50686544
819,8.18999999999987,1.5705185,-0.8749901,1.209034,3.1005993,5.10943,-0.46074513
820,8.19999999999987,1.586556,-0.895479,1.1729343,3.3151658,4.9499936,-0.30711251
821,8.20999999999987,1.586556,-0.895479,1.1729343,3.3151658,4.9499936,-0.30711251
822,8.21999999999987,1.6762563,-0.8252311,1.1792761,3.4509306,4.9313626,-0.2510656
823,8.229999999999869,1.8141302,-0.7442508,1.0904905,3.5894442,5.3641605,-0.4109596
824,8.239999999999869,1.8308386,-0.7161393,1.0093882,3.4968982,5.55979,-0.5348125
825,8.249999999999869,1.71821,-0.7059558,0.9063333,3.1282408,5.885534,-0.77579886
826,8.259999999999868,1.6133258,-0.7017483,0.91444355,2.8266263,5.987243,-0.8526152
827,8.269999999999868,1.5228938,-0.6843692,1.0278649,2.5670085,5.9977803,-0.8703303
828,8.279999999999868,1.4506944,-0.6801007,1.1294562,2.5573874,5.950133,-0.8445212
829,8.289999999999868,1.3980694,-0.66747797,1.2213517,2.716823,5.8585033,-0.77213365
830,8.299999999999867,1.381666,-0.6690634,1.2036678,3.0031662,5.6627207,-0.6606508
831,8.309999999999867,1.378678,-0.6716246,1.1641533,3.0411925,5.6251526,-0.62109727
832,8.319999999999867,1.4044112,-0.63192713,1.0504271,2.9254336,5.635537,-0.52641314
833,8.329999999999867,1.4289858,-0.6010107,1.0614643,2.6844473,5.743966,-0.5149594
834,8.339999999999867,1.2436092,-0.5560691,1.1511648,2.6025913,5.871484,-0.52946746
835,8.349999999999866,1.2436092,-0.5560691,1.1511648,2.787989,6.1888285,-0.58093286
836,8.359999999999866,1.1887889,-0.56326455,1.1282976,2.9770517,6.29741,-0.57894754
837,8.369999999999866,1.0966494,-0.58881485,0.94298184,3.314402,6.4498205,-0.46609017
838,8.379999999999866,1.0465854,-0.553142,0.76272744,3.3498323,6.5441995,-0.35995236
839,8.389999999999866,1.0344505,-0.48143053,0.66229475,3.2736268,6.537785,-0.30283645
840,8.399999999999865,1.0118273,-0.41599986,0.5925346,3.0932689,6.410878,-0.3022256
841,8.409999999999865,0.91505337,-0.35245958,0.5342995,2.5434902,6.301075,-0.4007276
842,8.419999999999865,0.91505337,-0.35245958,0.5342995,2.5434902,6.301075,-0.4007276
843,8.429999999999865,0.91505337,-0.35245958,0.5342995,2.4811819,6.4284406,-0.59483004
844,8.439999999999864,0.50570023,-0.2789187,0.6020473,2.8819096,6.6691213,-0.5187773
845,8.449999999999864,0.37776592,-0.30983517,0.42508578,3.2142203,6.770525,-0.30665436
846,8.459999999999864,0.33032414,-0.33001924,0.15342359,3.2142203,6.770525,-0.30665436
847,8.469999999999864,0.33300725,-0.2845288,0.05055173,3.3793066,6.7016497,0.269697
848,8.479999999999864,0.354228,-0.22562292,-0.009451771,3.386637,6.571383,0.44394633
849,8.489999999999863,0.34849593,-0.10201815,-0.19812131,3.4432948,6.274044,0.5484043
850,8.499999999999863,0.33288527,-0.054576356,-0.2734306,3.35533,5.8314724,0.47616947
851,8.509999999999863,0.21385394,0.08396832,-0.4454528,3.215289,5.4874024,0.36545014
852,8.519999999999863,0.1773884,0.0757971,-0.49637043,3.0734158,5.244736,0.22479841
853,8.529999999999863,0.055186145,0.10092052,-0.62753665,2.8440359,5.044067,0.13118331
854,8.539999999999862,0.011647021,0.10573788,-0.7108951,2.5392141,4.871345,0.111635625
855,8.549999999999862,-0.02561125,0.10232304,-0.78675324,2.5392141,4.871345,0.111635625
856,8.559999999999862,-0.16732684,0.13208087,-0.96590996,2.5392141,4.871345,0.111635625
857,8.569999999999862,-0.21623214,0.13049541,-1.0521346,2.2997549,4.2071815,0.24373524
858,8.579999999999862,-0.32068944,0.10707942,-1.3209307,2.2235496,3.8467712,0.34025195
859,8.589999999999861,-0.33636108,0.105615914,-1.4467918,2.0303633,2.9367347,0.63514715
860,8.599999999999861,-0.33636108,0.105615914,-1.4467918,2.0303633,2.9367347,0.63514715
861,8.60999999999986,-0.24428254,0.076102,-1.6847935,1.5766432,2.246915,0.7672467
862,8.61999999999986,-0.22787915,0.10884781,-1.9846889,1.5766432,2.246915,0.7672467
863,8.62999999999986,-0.23031832,0.18635234,-2.1270144,0.8539896,1.1607966,0.7060075
864,8.63999999999986,-0.23031832,0.18635234,-2.1270144,0.8539896,1.1607966,0.7060075
865,8.64999999999986,-0.22574489,0.20921952,-2.1618333,0.64950246,0.8567385,0.6728681
866,8.65999999999986,-0.19787739,0.24891695,-2.1479301,0.64950246,0.8567385,0.6728681
867,8.66999999999986,-0.16494864,0.29891986,-1.8070567,-0.5386304,-0.8003862,0.3297145
868,8.67999999999986,-0.14580119,0.32105532,-1.6361321,-1.303281,-1.9981402,0.049632803
869,8.68999999999986,-0.13244675,0.3293485,-1.510332,-1.4660766,-2.2666154,-0.043218717
870,8.699999999999859,-0.13769096,0.33056808,-1.2769647,-1.664455,-2.6258042,-0.20448714
871,8.709999999999859,-0.17501022,0.330751,-1.1487255,-1.7826575,-2.9379563,-0.31047225
872,8.719999999999859,-0.19964579,0.3266654,-1.0182911,-1.7826575,-2.9379563,-0.31047225
873,8.729999999999858,-0.20848778,0.31428665,-0.9071261,-1.859932,-3.402214,-0.32482758
874,8.739999999999858,-0.21928109,0.30757892,-0.8482203,-1.8651243,-3.543782,-0.29260445
875,8.749999999999858,-0.20312162,0.2924561,-0.7469948,-1.8651243,-3.543782,-0.29260445
876,8.759999999999858,-0.19659685,0.2847727,-0.708334,-1.9294178,-3.8991528,-0.15699236
877,8.769999999999857,-0.21202457,0.24897793,-0.60716957,-2.070375,-4.1184535,-0.051618114
878,8.779999999999857,-0.23568448,0.22165927,-0.5622279,-2.2256875,-4.2084036,0.022296581
879,8.789999999999857,-0.22434235,0.19123067,-0.51106644,-2.4582744,-4.308585,0.11178834
880,8.799999999999857,-0.1164702,0.1562896,-0.20940247,-2.8979447,-4.509102,0.15515977
881,8.809999999999857,-0.1164702,0.1562896,-0.20940247,-2.8979447,-4.509102,0.15515977
882,8.819999999999856,-0.058113147,0.12787332,-0.07543123,-2.9323058,-4.644714,0.12614368
883,8.829999999999856,0.035733793,0.03286777,0.20397532,-2.7062857,-4.8192687,0.051159963
884,8.839999999999856,0.038538832,-0.02786748,0.24861206,-2.3521366,-4.730235,0.106901415
885,8.849999999999856,0.005610083,-0.07957781,0.16122891,-2.1946862,-4.6202793,0.28237244
886,8.859999999999856,0.03158721,-0.10555494,0.064820856,-2.2768476,-4.6132545,0.5007568
887,8.869999999999855,0.16019227,-0.14006914,-0.005610083,-2.663067,-4.7616944,0.742354
888,8.879999999999855,0.2614177,-0.15110639,0.012134855,-2.9707904,-4.9185343,0.79366666
889,8.889999999999855,0.40764573,-0.15598471,0.16909523,-3.499647,-5.4017286,0.72143185
890,8.899999999999855,0.40764573,-0.15598471,0.16909523,-3.499647,-5.4017286,0.72143185
891,8.909999999999854,0.40764573,-0.15598471,0.16909523,-3.499647,-5.4017286,0.72143185
892,8.919999999999854,0.69040614,-0.2309891,0.7001018,-3.537979,-6.2592306,0.4653266
893,8.929999999999854,0.7452874,-0.30227375,0.71376115,-3.5674531,-6.2485404,0.43936482
894,8.939999999999854,0.8126084,-0.40008432,0.76967907,-3.752698,-5.890879,0.43676865
895,8.949999999999854,0.87919766,-0.48539415,0.7894363,-3.8902953,-5.350874,0.44837508
896,8.959999999999853,1.1137846,-0.52356714,0.75132436,-4.0210204,-4.787809,0.46853364
897,8.969999999999853,1.1137846,-0.52356714,0.75132436,-4.1647267,-4.8485904,0.41645738
898,8.979999999999853,1.132932,-0.5661306,0.81151074,-4.317443,-5.296507,0.30726522
899,8.989999999999853,1.1755564,-0.63192713,1.0232304,-4.2642975,-6.2459445,0.20250183
900,8.999999999999853,1.1953746,-0.6277195,1.0906734,-4.2065706,-6.414085,0.20112738
901,9.009999999999852,1.4616706,-0.6283903,1.4237416,-3.536757,-7.209279,0.22220223
902,9.019999999999852,1.4616706,-0.6283903,1.4237416,-3.0724995,-6.998836,0.16798794
903,9.029999999999852,1.3686163,-0.6813812,1.1992773,-2.696512,-5.5100045,0.10552697
904,9.039999999999852,1.3686163,-0.6813812,1.1992773,-2.696512,-5.5100045,0.10552697
905,9.049999999999851,1.3784951,-0.8385855,0.936701,-3.1308372,-4.726417,0.26099217
906,9.059999999999851,1.4519749,-0.8712093,0.9670686,-3.3014212,-4.60516,0.36713
907,9.069999999999851,1.4519749,-0.8712093,0.9670686,-3.3082933,-4.7284026,0.43844852
908,9.07999999999985,1.6456448,-0.8449273,1.0335358,-3.1948252,-5.136613,0.41645738
909,9.08999999999985,1.7297959,-0.82956064,1.0945761,-3.1183143,-5.3290358,0.37491855
910,9.09999999999985,1.7843113,-0.8246823,1.1447619,-2.7550023,-5.683643,0.09605856
911,9.10999999999985,1.7451628,-0.85084236,1.1276268,-2.6624563,-5.701511,-0.0012217305
912,9.11999999999985,1.7432724,-0.8584647,1.1779346,-2.6624563,-5.701511,-0.0012217305
913,9.12999999999985,1.7570537,-0.85584265,1.2116561,-2.4785857,-5.774662,0.06994407
914,9.13999999999985,1.7842505,-0.8561475,1.2187296,-2.4420865,-5.780465,0.10934488
915,9.14999999999985,1.844193,-0.8343169,1.2093389,-2.3727534,-5.7604594,0.18432859
916,9.15999999999985,1.7973,-0.8245603,1.1663485,-2.517223,-5.9347086,0.16707164
917,9.169999999999849,1.8127887,-0.80352247,1.1637874,-2.517223,-5.9347086,0.16707164
918,9.179999999999849,1.8127887,-0.80352247,1.1637874,-2.517223,-5.9347086,0.16707164
919,9.189999999999849,1.750346,-0.6623557,1.5264305,-3.2113185,-6.272364,0.13591751
920,9.199999999999848,1.8059591,-0.5676551,1.9137093,-3.134655,-5.923866,0.17898351
921,9.209999999999848,1.8059591,-0.5676551,1.9137093,-3.134655,-5.923866,0.17898351
922,9.219999999999848,1.8346801,-0.48850408,2.0704257,-2.8393016,-5.410739,0.10048734
923,9.229999999999848,1.7194296,-0.41258505,2.0912805,-2.3823745,-4.23406,-0.17669277
924,9.239999999999847,1.4252661,-0.42941532,1.9793837,-2.221717,-2.1438315,-0.44241914
925,9.249999999999847,1.244219,-0.47893035,1.9338323,-2.1644483,-1.1426234,-0.4437936
926,9.259999999999847,1.1337856,-0.503505,1.9257221,-2.0175352,-0.409127,-0.33826664
927,9.269999999999847,1.0231085,-0.50563926,1.9309663,-1.6552922,0.09636399,-0.111635625
928,9.279999999999847,0.9853624,-0.46832004,1.9306005,-1.2244794,0.3191771,0.09193522
929,9.289999999999846,1.0173764,-0.41898784,1.9132823,-0.68875057,0.45830166,0.25625798
930,9.299999999999846,1.074575,-0.37361938,1.8226674,0.010231993,0.5885687,0.3811799
931,9.309999999999846,1.1450058,-0.36337486,1.6882082,0.5839872,0.7912232,0.45249844
932,9.319999999999846,1.211839,-0.34770322,1.5771042,1.0126618,1.1100949,0.44898596
933,9.329999999999846,1.2693423,-0.3340439,1.4737445,1.2183707,1.3335189,0.40286562
934,9.339999999999845,1.2693423,-0.3340439,1.4737445,1.2183707,1.3335189,0.40286562
935,9.349999999999845,1.3345292,-0.30946928,1.2708669,1.5596917,1.7944167,0.29061913
936,9.359999999999845,1.3836173,-0.34752026,1.1602507,1.8660406,2.2756257,0.044745877
937,9.369999999999845,1.4042283,-0.37209487,1.059391,1.9639318,2.4517076,-0.14630222
938,9.379999999999844,1.4042283,-0.37209487,1.059391,1.9639318,2.4517076,-0.14630222
939,9.389999999999844,1.4646586,-0.45764863,0.86809945,1.9639318,2.4517076,-0.14630222
940,9.399999999999844,1.428132,-0.49777296,0.8901129,1.3393221,3.057075,-0.7521278
941,9.409999999999844,1.4001427,-0.56728923,0.9984119,1.0112875,3.206279,-0.77931136
942,9.419999999999844,1.3530058,-0.61643845,1.1140285,0.86467975,3.4556646,-0.75670934
943,9.429999999999843,1.3041005,-0.6714416,1.2136074,0.875828,3.9723039,-0.61453044
944,9.439999999999843,1.3153816,-0.72101766,1.2328769,0.9841039,4.3968554,-0.42470407
945,9.449999999999843,1.3671529,-0.7729719,1.2062289,1.1519392,4.8145347,-0.1366811
946,9.459999999999843,1.4280711,-0.7926682,1.171044,1.2820535,5.085453,0.09056077
947,9.469999999999843,1.5269793,-0.8043762,1.1307367,1.3920091,5.297576,0.27275133
948,9.479999999999842,1.6991235,-0.83029234,1.0884172,1.4367551,5.454263,0.3885103
949,9.489999999999842,1.7570537,-0.8303533,1.0943931,1.4230106,5.486028,0.38591412
950,9.499999999999842,1.7351012,-0.80602264,1.1309197,1.4555391,5.731443,0.3643811
951,9.509999999999842,1.6645483,-0.80779105,1.1721416,1.6481144,6.004958,0.39736784
952,9.519999999999841,1.642108,-0.85248876,1.0983567,1.9135354,6.14225,0.48288897
953,9.529999999999841,1.642108,-0.85248876,1.0983567,2.2446244,6.143319,0.6256787
954,9.539999999999841,1.7462604,-0.787424,0.98017913,2.3855815,5.963572,0.6469063
955,9.54999999999984,1.7146122,-0.7657764,0.9620684,2.2317963,5.952729,0.5505423
956,9.55999999999984,1.7146122,-0.7657764,0.9620684,2.2317963,5.952729,0.5505423
957,9.56999999999984,1.4619756,-0.6628436,1.1643972,2.2605069,6.1236186,0.4485278
958,9.57999999999984,1.3102595,-0.64997697,1.220742,2.666427,6.2066965,0.4654793
959,9.58999999999984,1.1852521,-0.6412569,1.1360419,3.3350189,6.2195244,0.5123632
960,9.59999999999984,1.1282976,-0.6390617,1.0301821,3.859141,6.0446644,0.5421429
961,9.60999999999984,1.1067109,-0.63979346,0.8477324,4.3267584,5.61431,0.54321194
962,9.61999999999984,1.1229924,-0.6006448,0.70510215,4.4344234,5.1767774,0.50900346
963,9.62999999999984,1.1256754,-0.5311895,0.6360737,4.34203,4.8307223,0.43508878
964,9.639999999999839,1.0832338,-0.3934376,0.50332206,3.695582,4.312403,0.19960022
965,9.649999999999839,1.0316455,-0.29959065,0.5401535,3.695582,4.312403,0.19960022
966,9.659999999999838,0.81212056,-0.22708642,0.9137729,1.9830213,4.204433,-0.26343563
967,9.669999999999838,0.81212056,-0.22708642,0.9137729,1.2490667,4.702288,-0.45860708
968,9.679999999999838,0.74919003,-0.24550213,1.0760994,1.0441214,5.146387,-0.5510005
969,9.689999999999838,0.60607195,-0.327824,1.2053142,1.165989,6.177375,-0.5543602
970,9.699999999999838,0.43197644,-0.4686249,1.1010399,1.5289958,6.6132274,-0.34956762
971,9.709999999999837,0.43197644,-0.4686249,1.1010399,2.1746802,6.757086,0.051465396
972,9.719999999999837,0.4042919,-0.46441734,0.9432867,2.6551259,6.6167397,0.40622538
973,9.729999999999837,0.4533801,-0.28556544,0.54783684,2.9104674,5.9223385,1.0125091
974,9.739999999999837,0.4533801,-0.28556544,0.54783684,2.9104674,5.9223385,1.0125091
975,9.749999999999837,0.480028,-0.18434003,0.45380697,2.5929701,5.8618627,1.1172725
976,9.759999999999836,0.7050411,0.015732625,0.4063042,1.5801557,7.1830115,0.8142834
977,9.769999999999836,0.7050411,0.015732625,0.4063042,1.5801557,7.1830115,0.8142834
978,9.779999999999836,0.4999072,-0.05256404,0.33587328,1.43141,8.360607,0.42913285
979,9.789999999999836,0.42850062,-0.078480184,0.2819067,1.6641496,8.5024805,0.453262
980,9.799999999999836,0.34349567,-0.17043677,0.057503358,2.35794,8.264243,0.67271537
981,9.809999999999835,0.2646496,-0.18391317,-0.19696271,3.0402763,7.580532,0.926988
982,9.819999999999835,0.2646496,-0.18391317,-0.19696271,3.0402763,7.580532,0.926988
983,9.829999999999835,0.20476803,-0.10518907,-0.3008712,3.6227365,6.763042,1.0758864
984,9.839999999999835,0.0034148335,0.019879209,-0.7186395,5.161964,4.2988114,1.2573134
985,9.849999999999834,0.0034148335,0.019879209,-0.7186395,5.375156,3.4715471,1.2852604
986,9.859999999999834,0.0034148335,0.019879209,-0.7186395,5.2079315,2.7940977,1.229519
987,9.869999999999834,-0.035550855,0.06085721,-1.3891054,4.9362493,2.6288586,1.183246
988,9.879999999999834,-0.050856624,0.07085779,-1.5760676,4.2537603,2.5682302,1.0800097
989,9.889999999999834,-0.0714066,0.08646846,-1.674366,3.7531562,2.5831964,0.99372506
990,9.899999999999833,-0.16848545,0.10116444,-1.7763841,2.7669141,2.5439484,0.83001316
991,9.909999999999833,-0.2336112,0.094212815,-1.8374243,2.0606012,2.40742,0.7646506
992,9.919999999999833,-0.27093044,0.10122541,-1.8637062,1.6035212,2.155438,0.70173144
993,9.929999999999833,-0.2939196,0.14567922,-1.9321859,1.133155,1.5676329,0.6105598
994,9.939999999999833,-0.30459094,0.17135146,-1.9555409,0.29458976,0.100792766,0.34468073
995,9.949999999999832,-0.29172435,0.2420873,-1.8140082,-0.15775596,-0.68218374,0.19211712
996,9.959999999999832,-0.29172435,0.2420873,-1.8140082,-0.15775596,-0.68218374,0.19211712
997,9.969999999999832,-0.28239453,0.23922127,-1.5253938,-0.78694713,-1.4909693,-0.08628472
998,9.979999999999832,-0.28239453,0.23922127,-1.5253938,-0.78694713,-1.4909693,-0.08628472
999,9.989999999999831,-0.36313096,0.28794363,-1.2256203,-1.3718506,-2.0187569,-0.33368513
1000,9.999999999999831,-0.41185328,0.2812969,-1.0759164,-1.7183639,-2.270128,-0.44974953
