id,timestamp,acc_x,acc_y,acc_z,gyro_x,gyro_y,gyro_z
0,0,0.626378,-0.7256521,0.02646496,0.02443461,-0.040317107,-0.26908615
1,0.01,0.6070476,-0.7370552,0.021098793,0.04795292,-0.03772093,-0.30207285
2,0.02,0.570765,-0.7524219,-0.0010366458,0.09101892,-0.03634648,-0.3286455
3,0.03,0.55576414,-0.7502877,-0.06262561,0.10369437,-0.048258353,-0.17928895
4,0.04,0.55576414,-0.7502877,-0.06262561,0.10369437,-0.048258353,-0.17928895
5,0.05,0.63851285,-0.71620035,-0.07000408,0.024129177,-0.055741455,0.004886922
6,0.060000000000000005,0.69717485,-0.6952845,-0.04969802,0.024129177,-0.055741455,0.004886922
7,0.07,0.69717485,-0.6952845,-0.04969802,-0.012675454,-0.064446285,0.031612277
8,0.08,0.7323598,-0.6803446,-0.020732917,-0.042913284,-0.07696902,-0.023518313
9,0.09,0.74358,-0.67381984,0.026038107,-0.01572978,-0.06704246,-0.074830994
10,0.09999999999999999,0.71967614,-0.68656445,0.03280679,0.055741455,-0.054519724,-0.1441642
11,0.10999999999999999,0.69449174,-0.7013824,0.02786748,0.11713341,-0.059101213,-0.17669277
12,0.11999999999999998,0.66985613,-0.71668816,0.0160985,0.18005253,-0.09040806,-0.19822577
13,0.12999999999999998,0.6378421,-0.7354088,0.005793021,0.25289822,-0.16203201,-0.2133447
14,0.13999999999999999,0.6165604,-0.7458362,-0.002134271,0.29886582,-0.24236079,-0.21884248
15,0.15,0.60308397,-0.76004434,-0.010854292,0.32650748,-0.31658092,-0.22449298
16,0.16,0.6027181,-0.772728,-0.01750102,0.33017266,-0.3239113,-0.23182335
17,0.17,0.60930383,-0.7863874,-0.03433127,0.3115413,-0.26557365,-0.2565634
18,0.18000000000000002,0.61387724,-0.7927902,-0.049332146,0.2780964,-0.19013181,-0.2828306
19,0.19000000000000003,0.61948735,-0.796205,-0.070187025,0.21884248,-0.112399206,-0.3031419
20,0.20000000000000004,0.6401593,-0.79760754,-0.087992944,0.10827587,-0.058184914,-0.3297145
21,0.21000000000000005,0.6711367,-0.79102176,-0.071162686,-0.096516706,0.024587326,-0.39736784
22,0.22000000000000006,0.6752833,-0.7841311,-0.050246835,-0.15714508,0.14263703,-0.43982297
23,0.23000000000000007,0.6752833,-0.7841311,-0.050246835,-0.15714508,0.14263703,-0.43982297
24,0.24000000000000007,0.68705225,-0.75620264,-0.027623562,-0.1684461,0.226631,-0.5027421
25,0.25000000000000006,0.68705225,-0.75620264,-0.027623562,-0.1684461,0.226631,-0.5027421
26,0.26000000000000006,0.69510156,-0.7224812,-0.021586625,-0.10995574,0.17562376,-0.6012441
27,0.2700000000000001,0.6974797,-0.71174884,-0.022196416,-0.0777326,0.14645495,-0.6412558
28,0.2800000000000001,0.68772304,-0.70260197,-0.026769854,-0.04444045,0.14049901,-0.6630942
29,0.2900000000000001,0.68772304,-0.70260197,-0.026769854,-0.04444045,0.14049901,-0.6630942
30,0.3000000000000001,0.68772304,-0.70260197,-0.026769854,-0.04444045,0.14049901,-0.6630942
31,0.3100000000000001,0.7161393,-0.69808954,-0.044575773,-0.063988134,0.12690726,-0.6569856
32,0.3200000000000001,0.77059376,-0.6977236,-0.03378246,-0.12660182,0.14859296,-0.6415612
33,0.3300000000000001,0.7891924,-0.70827305,-0.03152623,-0.17730364,0.17638734,-0.6041457
34,0.34000000000000014,0.77699655,-0.71223664,-0.02872119,-0.19364429,0.1873829,-0.56016344
35,0.35000000000000014,0.7798016,-0.7034557,-0.022440333,-0.19410244,0.20082195,-0.48075095
36,0.36000000000000015,0.7655325,-0.69132084,-0.017379062,-0.1469131,0.22571471,-0.41691554
37,0.37000000000000016,0.7621176,-0.6723563,-0.02494048,-0.08353582,0.2322815,-0.38224894
38,0.38000000000000017,0.73723817,-0.6545504,-0.035672814,-0.02321288,0.18509217,-0.37675115
39,0.3900000000000002,0.7127245,-0.6390617,-0.031221334,-0.02321288,0.18509217,-0.37675115
40,0.4000000000000002,0.7130294,-0.6249145,-0.019696271,0.014966198,0.110872045,-0.31505376
41,0.4100000000000002,0.7130294,-0.6249145,-0.019696271,-0.0047342055,0.1133155,-0.28221974
42,0.4200000000000002,0.7503486,-0.6114381,-0.005366167,-0.045662176,0.14844026,-0.25320363
43,0.4300000000000002,0.78535074,-0.61125517,-0.000121958336,-0.12843442,0.21762075,-0.22708915
44,0.4400000000000002,0.8204137,-0.60759646,0.0031099375,-0.12843442,0.21762075,-0.22708915
45,0.45000000000000023,0.86566025,-0.6077794,0.012805625,-0.160963,0.19532417,-0.27977628
46,0.46000000000000024,0.86566025,-0.6077794,0.012805625,-0.160963,0.19532417,-0.27977628
47,0.47000000000000025,0.8641968,-0.6005229,0.007378479,-0.17806722,0.052381694,-0.3210097
48,0.48000000000000026,0.8351097,-0.60558414,-0.006524771,-0.1742493,0.030390546,-0.31719178
49,0.49000000000000027,0.8099253,-0.6140602,-0.01835473,-0.17073683,0.029168816,-0.2864958
50,0.5000000000000002,0.7959611,-0.626378,-0.026647896,-0.16875152,0.029321533,-0.21074851
51,0.5100000000000002,0.7944976,-0.6390617,-0.021159772,-0.1469131,-0.0021380284,-0.14187345
52,0.5200000000000002,0.80462015,-0.64619625,-0.0048783333,-0.1282817,-0.058184914,-0.10980303
53,0.5300000000000002,0.8026078,-0.6466841,0.0014635,-0.1020145,-0.12018774,-0.100792766
54,0.5400000000000003,0.7943146,-0.6394885,-0.0026221042,-0.07574729,-0.1872302,-0.11010846
55,0.5500000000000003,0.76913023,-0.6265,-0.022501312,-0.07223482,-0.18096884,-0.101556346
56,0.5600000000000003,0.76382506,-0.6105234,-0.038355898,-0.07223482,-0.18096884,-0.101556346
57,0.5700000000000003,0.7641909,-0.58570486,-0.041587792,-0.14156802,0.033444874,-0.042913284
58,0.5800000000000003,0.7713865,-0.5646671,-0.040307228,-0.16340645,0.15424347,-0.016798794
59,0.5900000000000003,0.7927292,-0.5479588,-0.045185562,-0.16523905,0.22495113,-0.012064588
60,0.6000000000000003,0.81126684,-0.54448295,-0.043600105,-0.07467828,0.104610674,-0.04153884
61,0.6100000000000003,0.7829725,-0.5957055,-0.012988563,-0.0053450707,-0.005955936,-0.022296581
62,0.6200000000000003,0.7829725,-0.5957055,-0.012988563,0.08078693,-0.09437868,0.017715093
63,0.6300000000000003,0.7796187,-0.6229632,-0.0010366458,0.08078693,-0.09437868,0.017715093
64,0.6400000000000003,0.7848019,-0.6254633,-0.032136023,0.11255192,-0.093004234,0.0154243475
65,0.6500000000000004,0.77955765,-0.6279634,-0.043356188,0.071776666,-0.02367103,-0.0022907446
66,0.6600000000000004,0.778643,-0.63192713,-0.047197875,0.016035212,0.06627888,-0.0065668016
67,0.6700000000000004,0.7893143,-0.6327808,-0.03878275,-0.0125227375,0.1160644,-0.0021380284
68,0.6800000000000004,0.7893143,-0.6327808,-0.03878275,-0.032528576,0.15867224,0.002443461
69,0.6900000000000004,0.80462015,-0.6404032,-0.005914979,-0.021227567,0.118507855,0.0076358155
70,0.7000000000000004,0.80894965,-0.64278144,0.0019513334,0.0038179078,0.043066,0.011759156
71,0.7100000000000004,0.80651045,-0.64375705,0.0,0.035430185,-0.06918049,0.00015271631
72,0.7200000000000004,0.80022967,-0.64186674,-0.005427146,0.044593163,-0.14721853,-0.01160644
73,0.7300000000000004,0.7823017,-0.63082945,-0.022318374,0.031306844,-0.14004086,-0.04596761
74,0.7400000000000004,0.7725451,-0.62168264,-0.030367626,0.022449298,-0.10094548,-0.053603426
75,0.7500000000000004,0.75114137,-0.60284007,-0.046405144,-0.020158553,0.018325957,-0.048258353
76,0.7600000000000005,0.75644654,-0.5969251,-0.04396598,-0.060322944,0.11453723,-0.014660766
77,0.7700000000000005,0.75644654,-0.5969251,-0.04396598,-0.060322944,0.11453723,-0.014660766
78,0.7800000000000005,0.75644654,-0.5969251,-0.04396598,-0.005192355,0.09911288,0.018784106
79,0.7900000000000005,0.78315544,-0.60162044,-0.027074749,-0.06811147,0.16218472,0.005955936
80,0.8000000000000005,0.8127304,-0.67888105,-0.017074168,0.02855795,0.013897184,0.01450805
81,0.8100000000000005,0.79669285,-0.6658315,-0.026160065,0.065973446,-0.059101213,-0.0106901415
82,0.8200000000000005,0.79669285,-0.6658315,-0.026160065,0.093004234,-0.05177083,-0.039858956
83,0.8300000000000005,0.79669285,-0.6658315,-0.026160065,0.093004234,-0.05177083,-0.039858956
84,0.8400000000000005,0.76004434,-0.6218046,-0.04701494,-0.018325957,0.05024367,0.015271631
85,0.8500000000000005,0.82553595,-0.60814524,-0.020732917,-0.101098195,0.094989546,0.07819075
86,0.8600000000000005,0.8653554,-0.6034498,-0.012073875,-0.17486018,0.10186178,0.12415836
87,0.8700000000000006,0.89212525,-0.59991306,-0.010427438,-0.17486018,0.10186178,0.12415836
88,0.8800000000000006,0.90194285,-0.5939981,-0.018171793,-0.2060143,-0.025198191,0.15378532
89,0.8900000000000006,0.90737003,-0.58960754,-0.029879792,-0.204029,-0.1253801,0.15057829
90,0.9000000000000006,0.8976743,-0.5819242,-0.035428897,-0.19792034,-0.24862215,0.12675454
91,0.9100000000000006,0.8718192,-0.5801558,-0.037624147,-0.19792034,-0.24862215,0.12675454
92,0.9200000000000006,0.82553595,-0.5813754,-0.040551145,-0.20005837,-0.39400807,0.03680463
93,0.9300000000000006,0.7798016,-0.58119243,-0.043417167,-0.22113322,-0.35628715,0.025503624
94,0.9400000000000006,0.7456533,-0.5857659,-0.039819397,-0.22113322,-0.35628715,0.025503624
95,0.9500000000000006,0.7286401,-0.6077794,-0.03000175,-0.26251933,-0.12568553,0.10980303
96,0.9600000000000006,0.7276644,-0.62192655,-0.021525647,-0.23151793,-0.08032878,0.18203785
97,0.9700000000000006,0.7241886,-0.6257682,-0.013720313,-0.18997909,-0.08231409,0.22021692
98,0.9800000000000006,0.72168845,-0.6214387,-0.012805625,-0.10445796,-0.10369437,0.27229318
99,0.9900000000000007,0.7094926,-0.6015595,-0.024391668,0.025350908,-0.14065172,0.3454443
100,1.0000000000000007,0.71107805,-0.5923516,-0.041038983,0.16584991,-0.22983804,0.5154176
101,1.0100000000000007,0.73071337,-0.5874123,-0.059942525,0.1777618,-0.23457226,0.5804747
102,1.0200000000000007,0.75229996,-0.591193,-0.0693943,0.17348573,-0.18936823,0.63041294
103,1.0300000000000007,0.8362683,-0.60875505,-0.07421165,0.17348573,-0.18936823,0.63041294
104,1.0400000000000007,0.8637699,-0.6217436,-0.082077965,0.17058411,-0.12583824,0.627664
105,1.0500000000000007,0.8716362,-0.62900007,-0.08482202,0.15286903,-0.023518313,0.5842926
106,1.0600000000000007,0.8716362,-0.62900007,-0.08482202,0.15286903,-0.023518313,0.5842926
107,1.0700000000000007,0.8509033,-0.6691244,-0.08646846,0.078343466,-0.008246681,0.5299256
108,1.0800000000000007,0.8220601,-0.6770517,-0.07591906,0.061239243,-0.009468411,0.5187773
109,1.0900000000000007,0.7487632,-0.68912554,-0.049210187,0.061239243,-0.009468411,0.5187773
110,1.1000000000000008,0.7003457,-0.7019922,-0.02420873,0.022449298,0.06841691,0.5635232
111,1.1100000000000008,0.65637976,-0.71827364,-0.0030489585,0.022449298,0.06841691,0.5635232
112,1.1200000000000008,0.6086331,-0.73315257,0.005427146,0.02076942,0.20647246,0.65102965
113,1.1300000000000008,0.5925956,-0.7401042,0.0043905,0.021380283,0.2602286,0.6936375
114,1.1400000000000008,0.59515667,-0.7449825,-0.0037807084,0.031001411,0.27382034,0.72173727
115,1.1500000000000008,0.6197923,-0.7561417,-0.026343001,0.049785517,0.22617286,0.6914995
116,1.1600000000000008,0.64644015,-0.76919127,-0.053173836,0.054519724,0.13836098,0.6392705
117,1.1700000000000008,0.66723406,-0.7901071,-0.0746385,0.041233405,0.011148291,0.5589417
118,1.1800000000000008,0.7257131,-0.82681656,-0.09555435,0.014049901,-0.0720821,0.4894558
119,1.1900000000000008,0.74443364,-0.84431756,-0.10878683,-0.04016439,-0.10797043,0.3987423
120,1.2000000000000008,0.74004316,-0.8433418,-0.109335646,-0.11713341,-0.09636399,0.3565926
121,1.2100000000000009,0.69766265,-0.7894973,-0.09677394,-0.24770586,-0.04337143,0.41050145
122,1.2200000000000009,0.69766265,-0.7894973,-0.09677394,-0.24770586,-0.04337143,0.41050145
123,1.2300000000000009,0.6799177,-0.75303173,-0.09299323,-0.37614027,-0.04886922,0.5920811
124,1.2400000000000009,0.6802836,-0.6920526,-0.07085779,-0.39690968,-0.09896017,0.6411031
125,1.2500000000000009,0.6802836,-0.6920526,-0.07085779,-0.39690968,-0.09896017,0.6411031
126,1.260000000000001,0.69241846,-0.6691244,-0.08171208,-0.44501534,-0.22128594,0.6436992
127,1.270000000000001,0.7032117,-0.6646729,-0.08750511,-0.45356745,-0.2078469,0.6203337
128,1.280000000000001,0.7215665,-0.67339295,-0.11403105,-0.47861293,-0.23625213,0.55665094
129,1.290000000000001,0.71620035,-0.6841253,-0.10957957,-0.51083606,-0.29886582,0.49312097
130,1.300000000000001,0.7292499,-0.7029678,-0.08482202,-0.5546656,-0.41034874,0.3819435
131,1.310000000000001,0.71248055,-0.7215055,-0.053600688,-0.54641896,-0.47510046,0.2967278
132,1.320000000000001,0.7177858,-0.7326647,-0.043661084,-0.5487097,-0.58261275,0.2078469
133,1.330000000000001,0.7144319,-0.7456533,0.0071345624,-0.50808716,-0.6559166,0.07498371
134,1.340000000000001,0.5868635,-0.80425423,0.22537899,-0.32910365,-0.49006665,0.021685716
135,1.350000000000001,0.5392997,-0.82730436,0.27294275,-0.08506299,-0.2321288,0.056352317
136,1.360000000000001,0.48204032,-0.8085838,0.13134913,0.09392053,-0.116217114,0.09010262
137,1.370000000000001,0.48204032,-0.8085838,0.13134913,0.29703322,-0.071013086,0.0936151
138,1.380000000000001,0.4600878,-0.7882777,-0.025062438,0.50808716,-0.08307768,0.039858956
139,1.390000000000001,0.41728044,-0.7777283,-0.13775194,0.5945246,-0.1339322,-0.015577064
140,1.400000000000001,0.34892282,-0.8064495,-0.30520073,0.55741453,-0.21487185,-0.049785517
141,1.410000000000001,0.34892282,-0.8064495,-0.30520073,0.42653665,-0.24862215,-0.050396383
142,1.420000000000001,0.4633807,-0.8684653,-0.2614177,-0.04352415,-0.1525636,-0.008552114
143,1.430000000000001,0.5566178,-0.84084177,-0.19159654,-0.23060162,0.09896017,0.02107485
144,1.440000000000001,0.629305,-0.79394877,-0.13153206,-0.23060162,0.09896017,0.02107485
145,1.450000000000001,0.6466231,-0.76004434,-0.07768746,-0.30268374,0.13362677,-0.072540246
146,1.460000000000001,0.649916,-0.7340062,-0.033111688,-0.22418754,0.012064588,-0.14370605
147,1.470000000000001,0.63765913,-0.7134563,0.012805625,-0.058337633,-0.14202617,-0.22036964
148,1.480000000000001,0.63168323,-0.7052241,0.021891521,0.05879578,-0.22434026,-0.24373524
149,1.490000000000001,0.6267439,-0.6940039,0.021708583,0.05879578,-0.22434026,-0.24373524
150,1.500000000000001,0.63076854,-0.6916257,0.0066467295,0.42638394,-0.38072178,-0.27015516
151,1.5100000000000011,0.63765913,-0.68912554,-0.002134271,0.5468771,-0.41783184,-0.2948952
152,1.5200000000000011,0.64778167,-0.69650406,-0.032623854,0.6217081,-0.41248676,-0.312763
153,1.5300000000000011,0.6627216,-0.70187026,-0.060186442,0.65393126,-0.43799037,-0.34300083
154,1.5400000000000011,0.661441,-0.7151027,-0.07658983,0.6774496,-0.4343252,-0.37965274
155,1.5500000000000012,0.6690025,-0.7166272,-0.09848136,0.6556111,-0.44180828,-0.40790528
156,1.5600000000000012,0.6690025,-0.7166272,-0.09848136,0.62949663,-0.39064834,-0.40698898
157,1.5700000000000012,0.62473154,-0.72656673,-0.1006766,0.5910121,-0.35185838,-0.38789943
158,1.5800000000000012,0.6220485,-0.73254275,-0.12012896,0.54641896,-0.31429017,-0.35888332
159,1.5900000000000012,0.6327199,-0.7285791,-0.11762882,0.44043383,-0.26358834,-0.29367346
160,1.6000000000000012,0.6327199,-0.7285791,-0.11762882,0.44043383,-0.26358834,-0.29367346
161,1.6100000000000012,0.6340004,-0.72705466,-0.10354263,0.39461896,-0.23197608,-0.26847526
162,1.6200000000000012,0.65259904,-0.7308353,-0.10671354,0.39461896,-0.23197608,-0.26847526
163,1.6300000000000012,0.6696122,-0.73461604,-0.099152125,0.3016147,-0.22770002,-0.2751948
164,1.6400000000000012,0.6696122,-0.73461604,-0.099152125,0.27259862,-0.24510968,-0.31444287
165,1.6500000000000012,0.6710147,-0.7593736,-0.08037054,0.27259862,-0.24510968,-0.31444287
166,1.6600000000000013,0.6627216,-0.78327745,-0.06597946,0.25671613,-0.18677205,-0.40408736
167,1.6700000000000013,0.6627216,-0.78327745,-0.06597946,0.27840182,-0.11224649,-0.43600506
168,1.6800000000000013,0.60137653,-0.7807163,-0.071040735,0.30818152,0.006414085,-0.44501534
169,1.6900000000000013,0.58003384,-0.7784601,-0.08591965,0.3182608,0.10781772,-0.4269948
170,1.7000000000000013,0.5621669,-0.77766734,-0.10116444,0.30497447,0.22495113,-0.39935315
171,1.7100000000000013,0.5621669,-0.77766734,-0.10116444,0.26740626,0.300393,-0.37293324
172,1.7200000000000013,0.56917953,-0.78108215,-0.11909231,0.17638734,0.36086863,-0.376293
173,1.7300000000000013,0.59973013,-0.79559517,-0.14250831,0.17638734,0.36086863,-0.376293
174,1.7400000000000013,0.59973013,-0.79559517,-0.14250831,0.17638734,0.36086863,-0.376293
175,1.7500000000000013,0.6573554,-0.8353536,-0.17994952,-0.093767814,0.5371033,-0.48273626
176,1.7600000000000013,0.6261341,-0.8262678,-0.1823277,-0.24663684,0.67164636,-0.513585
177,1.7700000000000014,0.57247245,-0.7612639,-0.17098558,-0.44440445,0.86330533,-0.46181414
178,1.7800000000000014,0.49557772,-0.6743686,-0.13189794,-0.4989242,0.89720833,-0.3924809
179,1.7900000000000014,0.48106465,-0.64467174,-0.11384811,-0.5505423,0.71791935,-0.13148874
180,1.8000000000000014,0.5125909,-0.64052516,-0.09653002,-0.5581781,0.47036624,0.033292156
181,1.8100000000000014,0.5125909,-0.64052516,-0.09653002,-0.5581781,0.47036624,0.033292156
182,1.8200000000000014,0.6605873,-0.6567457,0.025489293,-0.464563,0.15378532,0.15515977
183,1.8300000000000014,0.74979985,-0.6677219,0.08012662,-0.3407101,0.20570888,0.06887506
184,1.8400000000000014,0.8476714,-0.6957723,0.10872585,-0.25137106,0.29886582,-0.05085453
185,1.8500000000000014,0.9233466,-0.7065656,0.10378654,-0.19975294,0.3746131,-0.18784106
186,1.8600000000000014,0.98011816,-0.68583274,0.06854059,-0.19226983,0.45875978,-0.31047225
187,1.8700000000000014,0.98011816,-0.68583274,0.06854059,-0.19226983,0.45875978,-0.31047225
188,1.8800000000000014,1.12098,-0.6371713,-0.063235395,-0.20677789,0.6754643,-0.61850107
189,1.8900000000000015,1.1171383,-0.5979617,-0.1387886,-0.24495697,0.6785186,-0.78877974
190,1.9000000000000015,1.0700015,-0.5895466,-0.1612899,-0.28802297,0.61101794,-0.88178396
191,1.9100000000000015,0.9576168,-0.58411944,-0.08549279,-0.28802297,0.61101794,-0.88178396
192,1.9200000000000015,0.81584024,-0.608694,-0.02420873,-0.21700987,0.54076844,-0.7991645
193,1.9300000000000015,0.7618737,-0.6210728,0.014391083,-0.09132435,0.44058657,-0.5691737
194,1.9400000000000015,0.7618737,-0.6210728,0.014391083,-0.09132435,0.44058657,-0.5691737
195,1.9500000000000015,0.7618737,-0.6210728,0.014391083,-0.09132435,0.44058657,-0.5691737
196,1.9600000000000015,0.7490071,-0.6572335,0.007378479,0.021991149,0.27550024,-0.46502116
197,1.9700000000000015,0.7440069,-0.65205026,-0.031709168,0.18463401,-0.15683965,-0.48059824
198,1.9800000000000015,0.7440069,-0.65205026,-0.031709168,0.16875152,-0.13622294,-0.5149594
199,1.9900000000000015,0.75669044,-0.6325369,-0.045002624,0.09101892,-0.014660766,-0.5685628
200,2.0000000000000013,0.75669044,-0.6325369,-0.045002624,0.024129177,0.099571034,-0.59757894
201,2.010000000000001,0.7851068,-0.6103405,-0.024025792,-0.11362094,0.35369098,-0.6398814
202,2.020000000000001,0.7972416,-0.6155847,-0.015061854,-0.13332134,0.3755294,-0.6339254
203,2.0300000000000007,0.8190112,-0.6173531,0.004695396,-0.15393804,0.32543847,-0.6021604
204,2.0400000000000005,0.8391954,-0.6190605,0.0336605,-0.15714508,0.19975294,-0.5355761
205,2.0500000000000003,0.8391954,-0.6190605,0.0336605,-0.15714508,0.19975294,-0.5355761
206,2.06,0.8404149,-0.5966202,0.04311227,-0.12721269,-0.13545936,-0.39202276
207,2.07,0.8404149,-0.5966202,0.04311227,-0.10323623,-0.27550024,-0.33628133
208,2.0799999999999996,0.8390124,-0.58790016,0.033721477,-0.069485925,-0.38881573,-0.2939789
209,2.0899999999999994,0.83047533,-0.6018034,-0.030977417,-0.048716504,-0.40454552,-0.27183503
210,2.099999999999999,0.82925564,-0.6008887,-0.054881252,-0.04550946,-0.36056322,-0.25244007
211,2.109999999999999,0.8258409,-0.5916809,-0.061345045,-0.07315111,-0.2764165,-0.22479841
212,2.1199999999999988,0.8233407,-0.5819852,-0.059576645,-0.12675454,-0.1742493,-0.20097467
213,2.1299999999999986,0.8085838,-0.573753,-0.05055173,-0.18005253,-0.1049161,-0.18570304
214,2.1399999999999983,0.8085838,-0.573753,-0.05055173,-0.18005253,-0.1049161,-0.18570304
215,2.149999999999998,0.77852106,-0.55777645,-0.028111396,-0.2790127,-0.041996986,-0.1133155
216,2.159999999999998,0.77547204,-0.55533725,-0.019452354,-0.28298333,-0.043218717,-0.06429356
217,2.1699999999999977,0.8104741,-0.54484886,-0.017744938,-0.2780964,-0.06383542,-0.021380283
218,2.1799999999999975,0.8104741,-0.54484886,-0.017744938,-0.26939157,-0.14172074,0.054825157
219,2.1899999999999973,0.85639143,-0.5290553,-0.034026377,-0.21700987,-0.2939789,0.075289145
220,2.199999999999997,0.86389184,-0.5397266,-0.04750277,-0.21700987,-0.2939789,0.075289145
221,2.209999999999997,0.86389184,-0.5397266,-0.04750277,-0.16126843,-0.35827246,0.05757405
222,2.2199999999999966,0.86389184,-0.5397266,-0.04750277,-0.16126843,-0.35827246,0.05757405
223,2.2299999999999964,0.81608415,-0.58448535,-0.06835765,-0.060628377,-0.4381431,0.12705997
224,2.239999999999996,0.8010833,-0.6032059,-0.11360419,0.018325957,-0.32055154,0.09285152
225,2.249999999999996,0.7943756,-0.6120479,-0.12427554,0.038331795,-0.18982637,0.058184914
226,2.259999999999996,0.79644895,-0.6111332,-0.13647138,0.04734206,-0.06169739,0.033292156
227,2.2699999999999956,0.79925394,-0.6047304,-0.12970269,0.04642576,0.08475755,-0.0016798794
228,2.2799999999999954,0.79309505,-0.5876562,-0.108055085,0.036193766,0.17134771,-0.03023783
229,2.289999999999995,0.79077786,-0.57881427,-0.07305304,0.012675454,0.21746802,-0.04886922
230,2.299999999999995,0.799315,-0.5859488,-0.04414892,-0.010537425,0.20021108,-0.05131268
231,2.3099999999999947,0.799315,-0.5859488,-0.04414892,-0.038179077,0.123242065,-0.04627304
232,2.3199999999999945,0.8180965,-0.6047304,-0.012073875,-0.061850104,0.01695151,-0.040011674
233,2.3299999999999943,0.80943745,-0.60966974,-0.019391375,-0.09773844,-0.113926366,-0.010231993
234,2.339999999999994,0.8007784,-0.62875617,-0.017318083,-0.08689558,-0.13209961,0.041233405
235,2.349999999999994,0.7986442,-0.6357078,-0.046953958,-0.06918049,-0.098807454,0.11835514
236,2.3599999999999937,0.81388897,-0.58259493,-0.09134679,0.0036651916,-0.0016798794,0.2958115
237,2.3699999999999934,0.8221212,-0.56210595,-0.10122541,0.05009095,-0.0038179078,0.3266602
238,2.3799999999999932,0.8221212,-0.56210595,-0.10122541,0.05009095,-0.0038179078,0.3266602
239,2.389999999999993,0.8404149,-0.53082365,-0.093664,0.10430524,-0.05467244,0.32727104
240,2.399999999999993,0.83504874,-0.5317993,-0.090737,0.17150041,-0.14844026,0.28023443
241,2.4099999999999926,0.842854,-0.54490983,-0.08610259,0.18387043,-0.15195273,0.26328292
242,2.4199999999999924,0.84437853,-0.561923,-0.08299265,0.17913623,-0.14110987,0.23380867
243,2.429999999999992,0.81956,-0.573753,-0.079211935,0.16447547,-0.12415836,0.20189096
244,2.439999999999992,0.758154,-0.5819242,-0.072870106,0.13362677,-0.10354166,0.20525073
245,2.4499999999999917,0.7412628,-0.61223084,-0.07366284,0.13362677,-0.10354166,0.20525073
246,2.4599999999999915,0.7505316,-0.629244,-0.06652827,-0.0071776668,-0.05299256,0.33383787
247,2.4699999999999913,0.79736364,-0.6371713,-0.06061329,-0.10140363,0.01740966,0.44058657
248,2.479999999999991,0.81382793,-0.6365615,-0.055552024,-0.15118915,0.057421334,0.5160284
249,2.489999999999991,0.8341341,-0.61692625,-0.0482955,-0.17241672,0.062308256,0.58551437
250,2.4999999999999907,0.8341341,-0.61692625,-0.0482955,-0.1479821,0.014966198,0.6507242
251,2.5099999999999905,0.8404149,-0.60814524,-0.050307814,-0.06795876,-0.057726767,0.68829244
252,2.5199999999999902,0.84297603,-0.59064424,-0.06854059,-0.00290161,-0.11453723,0.7182248
253,2.52999999999999,0.84297603,-0.59064424,-0.06854059,0.2518292,-0.22296582,0.6640105
254,2.53999999999999,0.82895076,-0.5878392,-0.081346214,0.2518292,-0.22296582,0.6640105
255,2.5499999999999896,0.79894906,-0.5907052,-0.15128931,0.36850446,-0.22220223,0.6256787
256,2.5599999999999894,0.80010766,-0.59948623,-0.16921718,0.38560867,-0.19776763,0.6047566
257,2.569999999999989,0.80535185,-0.62101185,-0.19031598,0.22800545,-0.22204952,0.5525276
258,2.579999999999989,0.80876666,-0.63265884,-0.18287653,0.22800545,-0.22204952,0.5525276
259,2.5899999999999888,0.80962044,-0.63942754,-0.16665606,0.044593163,-0.18066339,0.45463645
260,2.5999999999999885,0.79376584,-0.6399154,-0.14293517,-0.03313944,-0.072540246,0.4034765
261,2.6099999999999883,0.7794357,-0.6370494,-0.12610492,-0.081397794,0.003970624,0.39064834
262,2.619999999999988,0.7743745,-0.646745,-0.098725274,-0.12232576,0.062308256,0.39019018
263,2.629999999999988,0.763947,-0.6603434,-0.07329696,-0.12980886,0.080634214,0.39736784
264,2.6399999999999877,0.75071454,-0.6793689,-0.053234816,-0.12003502,0.07819075,0.41325033
265,2.6499999999999875,0.75071454,-0.6793689,-0.053234816,-0.12003502,0.07819075,0.41325033
266,2.6599999999999873,0.7238227,-0.6979676,-0.036221627,-0.11636983,0.05390886,0.44028112
267,2.669999999999987,0.7238227,-0.6979676,-0.036221627,-0.12370021,0.024587326,0.48075095
268,2.679999999999987,0.65412354,-0.7616908,0.0032928751,-0.22159137,-0.0036651916,0.69806623
269,2.6899999999999866,0.6463182,-0.76364213,0.007683375,-0.22159137,-0.0036651916,0.69806623
270,2.6999999999999864,0.6463182,-0.76364213,0.007683375,-0.22159137,-0.0036651916,0.69806623
271,2.709999999999986,0.6336955,-0.7544952,-0.0032928751,-0.16554448,0.3323107,0.7325801
272,2.719999999999986,0.63442725,-0.7355917,-0.042990312,-0.11484267,0.42180246,0.72387534
273,2.7299999999999858,0.66638035,-0.7269327,-0.12317792,-0.053450707,0.4392121,0.6899723
274,2.7399999999999856,0.66638035,-0.7269327,-0.12317792,-0.0062613687,0.39064834,0.63789606
275,2.7499999999999853,0.67083186,-0.7528488,-0.16372907,0.017256944,0.26725355,0.56505036
276,2.759999999999985,0.69266236,-0.825475,-0.20598765,-0.03268129,0.0936151,0.5141958
277,2.769999999999985,0.69266236,-0.825475,-0.20598765,-0.03268129,0.0936151,0.5141958
278,2.7799999999999847,0.7011995,-0.8697459,-0.20928052,-0.18555032,0.11942416,0.44944412
279,2.7899999999999845,0.70351666,-0.89108855,-0.17927876,-0.18555032,0.11942416,0.44944412
280,2.7999999999999843,0.70351666,-0.89108855,-0.17927876,-0.30909783,0.22128594,0.49357912
281,2.809999999999984,0.69766265,-0.8354146,-0.11762882,-0.52488595,0.43249258,0.66981375
282,2.819999999999984,0.69766265,-0.8354146,-0.11762882,-0.52488595,0.43249258,0.66981375
283,2.8299999999999836,0.68003964,-0.74595815,-0.014635001,-0.6620252,0.41248676,0.9027061
284,2.8399999999999834,0.6843082,-0.7112,0.028843146,-0.6401868,0.34681875,1.0218248
285,2.849999999999983,0.6843082,-0.7112,0.028843146,-0.6401868,0.34681875,1.0218248
286,2.859999999999983,0.66845363,-0.6487574,0.06884548,-0.47158796,0.12965615,1.1559098
287,2.869999999999983,0.6642461,-0.626317,0.08463909,-0.2843578,0.046578474,1.1073459
288,2.8799999999999826,0.65266,-0.62399983,0.07226031,-0.10323623,-0.018325957,1.0047206
289,2.8899999999999824,0.6502209,-0.6465621,0.036465544,0.11499538,-0.18463401,0.77182823
290,2.899999999999982,0.6405862,-0.68284476,-0.005061271,0.24923302,-0.40133846,0.50686544
291,2.909999999999982,0.6035718,-0.77333784,-0.050124876,0.29565877,-0.6542367,0.23426682
292,2.9199999999999817,0.5075906,-0.96737355,-0.03652652,0.26282477,-0.8414669,0.018325957
293,2.9299999999999815,0.40648714,-0.95237267,-0.028965104,0.15103643,-0.86193085,-0.088728175
294,2.9399999999999813,0.40648714,-0.95237267,-0.028965104,0.03970624,-0.6220135,-0.02443461
295,2.949999999999981,0.36392367,-0.8757219,-0.058113147,0.007941248,-0.25213462,0.109650314
296,2.959999999999981,0.36008197,-0.8140109,-0.10079856,0.041691553,-0.038331795,0.121256754
297,2.9699999999999807,0.3155672,-0.793156,-0.19263318,0.11285736,0.020463986,0.023518313
298,2.9799999999999804,0.27239394,-0.8442565,-0.23726994,0.19440787,-0.17104226,-0.24556783
299,2.9899999999999802,0.27239394,-0.8442565,-0.23726994,0.19440787,-0.17104226,-0.24556783
300,2.99999999999998,0.29782224,-0.8977963,-0.26318607,0.048716504,-0.06811147,-0.18570304
301,3.00999999999998,0.34983748,-0.898833,-0.2455631,-0.06414085,0.061850104,-0.12705997
302,3.0199999999999796,0.34983748,-0.898833,-0.2455631,-0.06414085,0.061850104,-0.12705997
303,3.0299999999999794,0.5186888,-0.86431867,-0.1390325,-0.2780964,0.14355333,-0.099265605
304,3.039999999999979,0.60137653,-0.79370487,-0.014817937,-0.2667954,0.11071932,-0.101556346
305,3.049999999999979,0.6343663,-0.7514463,0.025428312,-0.1947133,0.009773844,-0.12889257
306,3.0599999999999787,0.65881896,-0.70644367,0.040246252,-0.10705414,-0.07513642,-0.15241088
307,3.0699999999999785,0.6860156,-0.6853449,0.039270584,0.010537425,-0.18799378,-0.19883664
308,3.0799999999999783,0.70699245,-0.6633314,0.021159772,0.110872045,-0.2875648,-0.25900686
309,3.089999999999978,0.7022971,-0.65272105,-0.0018903542,0.24572055,-0.4014912,-0.34208453
310,3.099999999999978,0.6873572,-0.652843,-0.021037813,0.35796702,-0.46074513,-0.3998113
311,3.1099999999999777,0.6667462,-0.66479486,-0.049393125,0.46761733,-0.50900346,-0.44791695
312,3.1199999999999775,0.63625664,-0.6854668,-0.06067427,0.5882632,-0.55833083,-0.48487428
313,3.1299999999999772,0.617536,-0.70607775,-0.078114316,0.68554354,-0.59803706,-0.50732356
314,3.139999999999977,0.57997286,-0.7449215,-0.09653002,0.745561,-0.6012441,-0.5119051
315,3.149999999999977,0.57997286,-0.7449215,-0.09653002,0.8040514,-0.5777258,-0.49571714
316,3.1599999999999766,0.56850874,-0.7601053,-0.11012838,0.83062404,-0.5311473,-0.473726
317,3.1699999999999764,0.56850874,-0.7601053,-0.11012838,0.83062404,-0.5311473,-0.473726
318,3.179999999999976,0.56850874,-0.7601053,-0.11012838,0.83062404,-0.5311473,-0.473726
319,3.189999999999976,0.55777645,-0.8060836,-0.13305654,0.6270532,-0.3407101,-0.48426342
320,3.1999999999999758,0.55777645,-0.8060836,-0.13305654,0.6270532,-0.3407101,-0.48426342
321,3.2099999999999755,0.54692215,-0.82895076,-0.10707942,0.45616361,-0.23808473,-0.50900346
322,3.2199999999999753,0.53960466,-0.8368171,-0.10116444,0.39064834,-0.16768251,-0.4914411
323,3.229999999999975,0.54442203,-0.84114665,-0.09524946,0.3359759,-0.10094548,-0.46517387
324,3.239999999999975,0.54442203,-0.84114665,-0.09524946,0.2764165,-0.029168816,-0.43401974
325,3.2499999999999747,0.5470441,-0.84407365,-0.108298995,0.2764165,-0.029168816,-0.43401974
326,3.2599999999999745,0.54899544,-0.8343169,-0.11573846,0.17150041,0.031306844,-0.36636642
327,3.2699999999999743,0.55283713,-0.822609,-0.11634825,0.112399206,0.04917465,-0.33505958
328,3.279999999999974,0.55814236,-0.81431586,-0.117811754,0.053297993,0.06719518,-0.3023783
329,3.289999999999974,0.5732652,-0.8185843,-0.11372615,0.016340645,0.082924955,-0.2855795
330,3.2999999999999736,0.6210728,-0.8324266,-0.11354321,-0.06841691,0.095753126,-0.27397305
331,3.3099999999999734,0.64887935,-0.8454151,-0.10677453,-0.15653422,0.10247265,-0.28924468
332,3.319999999999973,0.65412354,-0.8336462,-0.10006681,-0.28084528,0.1957823,-0.3136793
333,3.329999999999973,0.64302534,-0.7995589,-0.08354146,-0.35796702,0.52106804,-0.32895094
334,3.3399999999999728,0.6288781,-0.7634592,-0.05585692,-0.35796702,0.52106804,-0.32895094
335,3.3499999999999726,0.6220485,-0.72101766,-0.028660208,-0.3474296,0.744492,-0.3370449
336,3.3599999999999723,0.6220485,-0.72101766,-0.028660208,-0.30543262,0.8729264,-0.36300668
337,3.369999999999972,0.63595176,-0.6740027,0.015732625,-0.23823744,0.945314,-0.40454552
338,3.379999999999972,0.67497844,-0.6830276,0.015244792,-0.0096211275,0.9062186,-0.50686544
339,3.3899999999999717,0.67497844,-0.6830276,0.015244792,-0.0096211275,0.9062186,-0.50686544
340,3.3999999999999715,0.79083884,-0.70443135,-0.05250306,0.0842994,0.68218374,-0.5531385
341,3.4099999999999713,0.90505284,-0.708334,-0.11811664,0.021227567,0.4998405,-0.6383542
342,3.419999999999971,1.0263404,-0.69412583,-0.16921718,-0.1421789,0.24220806,-0.83291477
343,3.429999999999971,1.0810996,-0.6664413,-0.15342359,-0.28344148,0.12018774,-1.0143417
344,3.4399999999999706,1.0293283,-0.66168493,-0.093054205,-0.3932445,0.18387043,-1.1756102
345,3.4499999999999704,0.9362132,-0.66113615,-0.043783043,-0.4092797,0.37048978,-1.1873693
346,3.45999999999997,0.825414,-0.65979457,-0.027379647,-0.376293,0.5687156,-1.031446
347,3.46999999999997,0.7649227,-0.6567457,-0.023172084,-0.33322698,0.5705481,-0.8501717
348,3.47999999999997,0.75980043,-0.64308625,-0.006341833,-0.24846944,0.40530908,-0.6910413
349,3.4899999999999696,0.75998336,-0.64400095,0.020976834,-0.16142114,0.19837849,-0.6273586
350,3.4999999999999694,0.7452874,-0.6474158,0.03207504,-0.034972034,-0.040011674,-0.5864306
351,3.509999999999969,0.7617518,-0.644062,-0.005305188,0.047036625,-0.19440787,-0.56077427
352,3.519999999999969,0.7596175,-0.6354029,-0.04396598,0.1151481,-0.29779682,-0.573297
353,3.5299999999999687,0.7596175,-0.6354029,-0.04396598,0.1151481,-0.29779682,-0.573297
354,3.5399999999999685,0.7596175,-0.6354029,-0.04396598,0.1151481,-0.29779682,-0.573297
355,3.5499999999999683,0.7482754,-0.6190605,-0.086163566,0.061391957,-0.09560041,-0.65286225
356,3.559999999999968,0.78157,-0.61924344,-0.054149497,-0.074067414,0.18051068,-0.66950834
357,3.569999999999968,0.80370545,-0.61899954,-0.025184397,-0.17562376,0.3032946,-0.6375906
358,3.5799999999999677,0.82010883,-0.6144871,-0.010000584,-0.21380283,0.30069843,-0.6096435
359,3.5899999999999674,0.8351097,-0.6216216,0.0048783333,-0.26160303,0.24190263,-0.5290093
360,3.5999999999999672,0.8515131,-0.6073525,0.0160985,-0.27962357,0.16615535,-0.47616947
361,3.609999999999967,0.84450054,-0.60107166,0.025184397,-0.2677117,-0.0009162979,-0.4118759
362,3.619999999999967,0.8322436,-0.5777776,0.018964522,-0.22128594,-0.19211712,-0.356898
363,3.6299999999999666,0.81382793,-0.56911856,0.005488125,-0.1601994,-0.3576616,-0.32895094
364,3.6399999999999664,0.7979734,-0.564911,-0.021525647,-0.118202426,-0.4269948,-0.30390546
365,3.649999999999966,0.7979734,-0.564911,-0.021525647,-0.118202426,-0.4269948,-0.30390546
366,3.659999999999966,0.7979734,-0.564911,-0.021525647,-0.118202426,-0.4269948,-0.30390546
367,3.6699999999999657,0.84462243,-0.5994252,-0.083480485,-0.15317446,-0.26221392,-0.17760907
368,3.6799999999999655,0.85200095,-0.6130236,-0.081773065,-0.15317446,-0.26221392,-0.17760907
369,3.6899999999999653,0.8451712,-0.61649936,-0.077931374,-0.15607607,-0.21700987,-0.16676621
370,3.699999999999965,0.7791308,-0.5774118,-0.07713865,-0.12935072,-0.18875736,-0.15821409
371,3.709999999999965,0.7791308,-0.5774118,-0.07713865,-0.009010263,-0.07574729,-0.14446963
372,3.7199999999999647,0.73101825,-0.5036879,-0.08872469,-0.009010263,-0.07574729,-0.14446963
373,3.7299999999999645,0.73101825,-0.5036879,-0.08872469,0.03680463,-0.009468411,-0.10888673
374,3.7399999999999642,0.8258409,-0.46850294,-0.08726119,0.030848695,0.022449298,0.01817324
375,3.749999999999964,0.86718476,-0.5012488,-0.056710627,0.018478673,0.012675454,0.06582073
376,3.759999999999964,0.86718476,-0.5012488,-0.056710627,0.018478673,0.012675454,0.06582073
377,3.7699999999999636,0.84206134,-0.5841804,-0.034026377,0.05177083,-0.090713486,0.16432275
378,3.7799999999999634,0.83389014,-0.5939981,-0.03640456,0.058337633,-0.18829921,0.20754147
379,3.789999999999963,0.83389014,-0.5939981,-0.03640456,0.058337633,-0.18829921,0.20754147
380,3.799999999999963,0.8077301,-0.5800948,-0.06073525,0.024587326,-0.26419923,0.2125811
381,3.8099999999999627,0.7965709,-0.58119243,-0.06713806,0.004886922,-0.2556471,0.21487185
382,3.8199999999999625,0.78839964,-0.5753994,-0.08335852,0.004886922,-0.2556471,0.21487185
383,3.8299999999999623,0.78839964,-0.5753994,-0.08335852,-0.027488936,-0.19853121,0.22174409
384,3.839999999999962,0.78650934,-0.5744847,-0.090737,-0.03772093,-0.12415836,0.21533
385,3.849999999999962,0.7944366,-0.5841804,-0.09439575,-0.027030786,-0.08017606,0.20662516
386,3.8599999999999617,0.8067544,-0.60899895,-0.091529734,-0.0027488936,-0.048258353,0.20051652
387,3.8699999999999615,0.8213894,-0.62302417,-0.08829784,0.015577064,-0.04444045,0.20173825
388,3.8799999999999613,0.8331583,-0.6370494,-0.085614756,0.051159963,-0.04795292,0.18860464
389,3.889999999999961,0.82736534,-0.64052516,-0.089517415,0.08445212,-0.042913284,0.16310102
390,3.899999999999961,0.8054738,-0.63192713,-0.10104248,0.11133019,-0.02443461,0.13622294
391,3.9099999999999606,0.7926682,-0.6173531,-0.09500554,0.119729586,0.008552114,0.12889257
392,3.9199999999999604,0.7954123,-0.61387724,-0.07896802,0.10720685,0.076816306,0.101556346
393,3.92999999999996,0.78693616,-0.6075354,-0.061101127,0.086437434,0.07895433,0.07941248
394,3.93999999999996,0.77455735,-0.59881544,-0.05055173,0.057268616,0.053145275,0.075594574
395,3.9499999999999598,0.77839905,-0.59290045,-0.044758707,0.025503624,0.02733622,0.09392053
396,3.9599999999999596,0.77839905,-0.59290045,-0.044758707,0.025503624,0.02733622,0.09392053
397,3.9699999999999593,0.80571777,-0.59905934,-0.045856334,-0.016187929,0.0027488936,0.118202426
398,3.979999999999959,0.82834107,-0.6121089,-0.054759294,-0.067500606,-0.03283401,0.14859296
399,3.989999999999959,0.8245603,-0.6165604,-0.06347931,-0.09437868,-0.061086524,0.17669277
400,3.9999999999999587,0.8114498,-0.6152188,-0.07341892,-0.08827003,-0.073303826,0.19150625
401,4.009999999999959,0.7818139,-0.59790075,-0.092932254,-0.024587326,-0.07651087,0.21273382
402,4.019999999999959,0.7672399,-0.5834487,-0.10640865,0.06795876,-0.046578474,0.26206118
403,4.0299999999999585,0.77699655,-0.585339,-0.10823802,0.11407909,-0.021685716,0.301462
404,4.039999999999958,0.8009004,-0.59930325,-0.10146933,0.16126843,0.014049901,0.35414913
405,4.049999999999958,0.8170599,-0.6133285,-0.09677394,0.18661933,0.039858956,0.3921755
406,4.059999999999958,0.82876784,-0.626378,-0.09256637,0.19975294,0.04734206,0.43264532
407,4.069999999999958,0.8454151,-0.64772075,-0.086285524,0.1788308,0.004581489,0.49373183
408,4.079999999999957,0.8454151,-0.64772075,-0.086285524,0.1788308,0.004581489,0.49373183
409,4.089999999999957,0.8380977,-0.646745,-0.084456146,0.14966199,-0.02367103,0.5120578
410,4.099999999999957,0.8337072,-0.6448547,-0.08695629,0.1337795,-0.037110064,0.52183163
411,4.109999999999957,0.8337072,-0.6448547,-0.08695629,0.1337795,-0.037110064,0.52183163
412,4.119999999999957,0.8143768,-0.58747333,-0.09079798,0.03726278,-0.124311075,0.5766568
413,4.129999999999956,0.8143768,-0.58747333,-0.09079798,0.03726278,-0.124311075,0.5766568
414,4.139999999999956,0.8143768,-0.58747333,-0.09079798,0.03726278,-0.124311075,0.5766568
415,4.149999999999956,0.7921194,-0.57936305,-0.10768921,0.09789115,-0.15577064,0.5233588
416,4.159999999999956,0.763947,-0.59466887,-0.10970152,0.09789115,-0.15577064,0.5233588
417,4.1699999999999555,0.763947,-0.59466887,-0.10970152,0.064599,-0.12797627,0.515723
418,4.179999999999955,0.7449825,-0.61765796,-0.10427438,0.016646078,-0.10262536,0.5177083
419,4.189999999999955,0.72943276,-0.644062,-0.08848077,-0.0580322,-0.11407909,0.5355761
420,4.199999999999955,0.69650406,-0.6587579,-0.056954544,-0.19074267,-0.1611157,0.643852
421,4.209999999999955,0.75047064,-0.74595815,0.008963938,-0.1470658,-0.079107046,0.6253733
422,4.2199999999999545,0.75547093,-0.7673619,0.014147166,-0.049938235,0.054519724,0.5900958
423,4.229999999999954,0.7394943,-0.7621176,-0.0035977708,0.028099801,0.13439035,0.5558874
424,4.239999999999954,0.7394943,-0.7621176,-0.0035977708,0.028099801,0.13439035,0.5558874
425,4.249999999999954,0.7160784,-0.7591906,-0.09988388,0.062155537,0.18448131,0.5180137
426,4.259999999999954,0.7090658,-0.75980043,-0.12866604,-0.0012217305,0.15974127,0.5177083
427,4.269999999999953,0.6635143,-0.76943517,-0.1548261,-0.09896017,0.12003502,0.5209153
428,4.279999999999953,0.6635143,-0.76943517,-0.1548261,-0.21762075,0.09483683,0.52763486
429,4.289999999999953,0.63265884,-0.7646788,-0.14305714,-0.3306308,0.116217114,0.54641896
430,4.299999999999953,0.59491277,-0.7546782,-0.12647079,-0.42959097,0.2096795,0.589485
431,4.3099999999999525,0.5500321,-0.71339524,-0.09482261,-0.5186246,0.3801109,0.7228063
432,4.319999999999952,0.5500321,-0.71339524,-0.09482261,-0.50701815,0.3998113,0.7948884
433,4.329999999999952,0.5867415,-0.7106512,-0.06183288,-0.50701815,0.3998113,0.7948884
434,4.339999999999952,0.5867415,-0.7106512,-0.06183288,-0.3987423,0.32604933,0.80573124
435,4.349999999999952,0.65955067,-0.7505926,-0.06158896,-0.31306845,0.23625213,0.72341716
436,4.3599999999999515,0.68272275,-0.77974063,-0.06683317,-0.2510656,0.18768835,0.65668017
437,4.369999999999951,0.68272275,-0.77974063,-0.06683317,-0.2510656,0.18768835,0.65668017
438,4.379999999999951,0.7192493,-0.83071923,-0.08579769,-0.20433442,0.20097467,0.4025602
439,4.389999999999951,0.7145539,-0.875234,-0.12720254,-0.24969117,0.2603813,0.3284928
440,4.399999999999951,0.6890036,-0.88084406,-0.14982581,-0.3297145,0.35628715,0.2848159
441,4.40999999999995,0.6540016,-0.86700183,-0.16592431,-0.46211955,0.5323691,0.2930626
442,4.41999999999995,0.61101127,-0.8453542,-0.17104656,-0.61468315,0.7110472,0.3733914
443,4.42999999999995,0.5892417,-0.8127913,-0.15507002,-0.7495316,0.7872526,0.50671273
444,4.43999999999995,0.5892417,-0.8127913,-0.15507002,-0.79534656,0.77488256,0.59330285
445,4.4499999999999496,0.6049743,-0.75114137,-0.10890879,-0.79534656,0.77488256,0.59330285
446,4.459999999999949,0.63503706,-0.72345686,-0.061649937,-0.7806858,0.68477994,0.7099781
447,4.469999999999949,0.63503706,-0.72345686,-0.061649937,-0.6435465,0.50762904,0.76174897
448,4.479999999999949,0.6107673,-0.7267497,0.0336605,-0.2322815,0.1414153,0.659429
449,4.489999999999949,0.55216634,-0.72028595,0.03640456,-0.07223482,-0.037110064,0.5535966
450,4.4999999999999485,0.5075296,-0.7313232,0.024391668,0.040317107,-0.15363261,0.516792
451,4.509999999999948,0.54423904,-0.7481534,0.020123126,0.027183503,-0.21120666,0.53038377
452,4.519999999999948,0.60747445,-0.7540684,0.032014064,0.00076358154,-0.2565634,0.49495357
453,4.529999999999948,0.6506477,-0.7650446,0.015549688,0.00076358154,-0.2565634,0.49495357
454,4.539999999999948,0.6506477,-0.7650446,0.015549688,0.00076358154,-0.2565634,0.49495357
455,4.549999999999947,0.6168043,-0.78565556,-0.10445731,0.13683382,-0.09285152,0.05589417
456,4.559999999999947,0.54826367,-0.8387685,-0.13860564,0.18860464,-0.13179417,-0.14660765
457,4.569999999999947,0.54826367,-0.8387685,-0.13860564,0.19165897,-0.23945917,-0.32727104
458,4.579999999999947,0.2891632,-0.92865175,-0.15665549,0.14019357,-0.24465153,-0.30543262
459,4.589999999999947,0.2891632,-0.92865175,-0.15665549,0.14019357,-0.24465153,-0.30543262
460,4.599999999999946,0.22684251,-0.9339569,-0.16013129,-0.05421429,-0.09758572,0.07315111
461,4.609999999999946,0.22684251,-0.9339569,-0.16013129,-0.05421429,-0.09758572,0.07315111
462,4.619999999999946,0.22684251,-0.9339569,-0.16013129,-0.05421429,-0.09758572,0.07315111
463,4.629999999999946,0.70302886,-0.7215055,-0.033721477,-0.15149458,0.04810564,-0.033292156
464,4.6399999999999455,0.7050411,-0.7111391,0.0017683958,-0.082161374,0.031306844,-0.13805555
465,4.649999999999945,0.6650388,-0.72937185,0.014269125,0.093767814,-0.06688975,-0.3481932
466,4.659999999999945,0.5957664,-0.7664472,-0.008902958,0.19181168,-0.1554652,-0.44257188
467,4.669999999999945,0.54551965,-0.77955765,-0.040917024,0.26358834,-0.22953261,-0.4906775
468,4.679999999999945,0.49582162,-0.78047234,-0.09354204,0.3129157,-0.27565295,-0.48655418
469,4.689999999999944,0.479967,-0.77242315,-0.12451946,0.31780264,-0.2938262,-0.43997568
470,4.699999999999944,0.4927117,-0.7573003,-0.1411058,0.2828306,-0.3182608,-0.2958115
471,4.709999999999944,0.5485686,-0.7437629,-0.12951976,0.2779437,-0.33292156,-0.2773328
472,4.719999999999944,0.57277733,-0.73479897,-0.11720196,0.28420505,-0.3475823,-0.28588495
473,4.729999999999944,0.57277733,-0.73479897,-0.11720196,0.28420505,-0.3475823,-0.28588495
474,4.739999999999943,0.5867415,-0.725896,-0.1015913,0.2939789,-0.3462079,-0.2967278
475,4.749999999999943,0.5933273,-0.7208957,-0.080614455,0.32925636,-0.3155119,-0.2967278
476,4.759999999999943,0.59613234,-0.72229826,-0.07134563,0.3475823,-0.30925053,-0.28313604
477,4.769999999999943,0.6018644,-0.72803026,-0.052198168,0.38683042,-0.33337972,-0.2742785
478,4.7799999999999425,0.6155847,-0.7391895,-0.054820273,0.43982297,-0.36483926,-0.279929
479,4.789999999999942,0.6180239,-0.7532757,-0.043905,0.51266867,-0.43157628,-0.29993483
480,4.799999999999942,0.6200362,-0.76498365,-0.048600398,0.5893322,-0.5030475,-0.3284928
481,4.809999999999942,0.62156063,-0.77906984,-0.046953958,0.6401868,-0.552833,-0.35124752
482,4.819999999999942,0.6158286,-0.79083884,-0.04884431,0.68203104,-0.5697846,-0.38026363
483,4.8299999999999415,0.61015755,-0.80596167,-0.057503358,0.70661837,-0.5561928,-0.40591997
484,4.839999999999941,0.6043645,-0.81382793,-0.059881546,0.714865,-0.49877146,-0.42562035
485,4.849999999999941,0.591315,-0.819316,-0.06872352,0.7107417,-0.42439863,-0.4344779
486,4.859999999999941,0.58515614,-0.8193771,-0.084883004,0.6805039,-0.3135266,-0.43508878
487,4.869999999999941,0.5721066,-0.82096255,-0.09616415,0.6258314,-0.22968534,-0.42241332
488,4.87999999999994,0.561984,-0.81864536,-0.10701844,0.53786683,-0.12996158,-0.39522982
489,4.88999999999994,0.5538128,-0.81382793,-0.1203119,0.45142943,-0.052381694,-0.3678936
490,4.89999999999994,0.547349,-0.8036444,-0.1185435,0.3304781,0.045662176,-0.3361286
491,4.90999999999994,0.54741,-0.8012053,-0.12104365,0.21426098,0.15485434,-0.3042109
492,4.9199999999999395,0.55667883,-0.8026078,-0.12140953,0.1414153,0.21548271,-0.29275718
493,4.929999999999939,0.6095478,-0.8153525,-0.091956586,0.030543262,0.29779682,-0.28145617
494,4.939999999999939,0.6095478,-0.8153525,-0.091956586,0.030543262,0.29779682,-0.28145617
495,4.949999999999939,0.614731,-0.8045591,-0.07841921,-0.1553125,0.42836925,-0.29428434
496,4.959999999999939,0.6330857,-0.8009614,-0.061223082,-0.2012801,0.50747633,-0.28878653
497,4.9699999999999385,0.7283961,-0.8051689,-0.037807085,-0.24281894,0.6976081,-0.35094208
498,4.979999999999938,0.7643739,-0.7927902,-0.034636166,-0.2415972,0.7475463,-0.42821655
499,4.989999999999938,0.7808992,-0.75906867,-0.048112564,-0.20815234,0.76342887,-0.4978552
500,4.999999999999938,0.7808992,-0.75906867,-0.048112564,-0.15974127,0.73563445,-0.57696223
501,5.009999999999938,0.8120596,-0.66845363,-0.1009815,-0.09697486,0.63194007,-0.7093673
502,5.019999999999937,0.8120596,-0.66845363,-0.1009815,-0.04596761,0.5027421,-0.8614727
503,5.029999999999937,0.8251092,-0.6304027,-0.11451888,-0.04596761,0.5027421,-0.8614727
504,5.039999999999937,0.819621,-0.5771678,-0.08012662,0.045662176,0.25625798,-1.1388055
505,5.049999999999937,0.7539464,-0.5998521,-0.03469715,0.069485925,0.18921551,-1.1456778
506,5.0599999999999365,0.72937185,-0.63686645,0.009878625,0.05787948,0.18570304,-1.0393872
507,5.069999999999936,0.7563246,-0.6829667,0.024818521,0.031306844,0.18829921,-0.8866709
508,5.079999999999936,0.81791353,-0.73571366,0.034880083,0.0065668016,0.1563815,-0.8168796
509,5.089999999999936,0.81791353,-0.73571366,0.034880083,-0.029321533,0.034208454,-0.79336125
510,5.099999999999936,0.81791353,-0.73571366,0.034880083,-0.057726767,-0.08933904,-0.80771655
511,5.1099999999999355,0.8146817,-0.76559347,-0.013537374,-0.035124753,-0.0061086523,-0.8017606
512,5.119999999999935,0.77791125,-0.72052985,-0.018842563,-0.07360926,-0.101556346,-0.7893906
513,5.129999999999935,0.740592,-0.65644073,-0.029757833,-0.09483683,-0.07360926,-0.7652614
514,5.139999999999935,0.7510194,-0.59741294,-0.03378246,-0.13713925,-0.016493361,-0.7290677
515,5.149999999999935,0.7510194,-0.59741294,-0.03378246,-0.18463401,0.07971791,-0.6930266
516,5.159999999999934,0.7811431,-0.5947908,-0.028660208,-0.22342396,0.15775596,-0.6617198
517,5.169999999999934,0.801998,-0.5975349,-0.011342125,-0.2275473,0.17119499,-0.6104071
518,5.179999999999934,0.7999857,-0.60582805,-0.0034758127,-0.2275473,0.17119499,-0.6104071
519,5.189999999999934,0.8024858,-0.6068037,-0.008781,-0.18677205,0.13118331,-0.59788436
520,5.199999999999934,0.804986,-0.6024132,-0.014147166,-0.039553523,-0.08384126,-0.56046885
521,5.209999999999933,0.7957171,-0.59857154,-0.020184105,-0.010079277,-0.116675265,-0.5491679
522,5.219999999999933,0.80559576,-0.5902783,-0.03719729,-0.00061086525,-0.10064005,-0.50640726
523,5.229999999999933,0.8070593,-0.57277733,-0.04664906,-0.02076942,-0.051923547,-0.47250426
524,5.239999999999933,0.8070593,-0.57277733,-0.04664906,-0.02076942,-0.051923547,-0.47250426
525,5.2499999999999325,0.8070593,-0.57277733,-0.04664906,-0.07574729,0.04062254,-0.40469822
526,5.259999999999932,0.8205357,-0.5663135,-0.033965394,-0.12690726,0.1001819,-0.32085696
527,5.269999999999932,0.8252311,-0.5739969,-0.013842272,-0.123242065,0.06490443,-0.2790127
528,5.279999999999932,0.8212674,-0.5769239,0.00079272914,-0.090713486,-0.070249505,-0.22449298
529,5.289999999999932,0.8222431,-0.57253337,-0.0026830835,-0.08445212,-0.09101892,-0.21578814
530,5.299999999999931,0.83004844,-0.5739359,-0.0069516255,-0.059406646,-0.19929479,-0.16508633
531,5.309999999999931,0.83114606,-0.57546043,-0.015732625,-0.059406646,-0.19929479,-0.16508633
532,5.319999999999931,0.8235237,-0.5803997,-0.028904125,-0.040775254,-0.2687807,-0.13775012
533,5.329999999999931,0.8149866,-0.58637565,-0.051771317,-0.03970624,-0.2406809,-0.1328632
534,5.339999999999931,0.8116937,-0.5859488,-0.06451596,-0.040317107,-0.1553125,-0.14309518
535,5.34999999999993,0.8116937,-0.5859488,-0.06451596,-0.040317107,-0.1553125,-0.14309518
536,5.35999999999993,0.81748676,-0.5814974,-0.06061329,-0.038179077,-0.10399981,-0.16768251
537,5.36999999999993,0.82797515,-0.57503355,-0.04256346,-0.04917465,-0.09437868,-0.16539176
538,5.37999999999993,0.8376099,-0.56326455,-0.036770437,-0.07880162,-0.09086621,-0.14110987
539,5.3899999999999295,0.8376099,-0.56326455,-0.036770437,-0.10094548,-0.09208794,-0.11927144
540,5.399999999999929,0.8219992,-0.54490983,-0.047380816,-0.114689946,-0.08597928,-0.08017606
541,5.409999999999929,0.8132182,-0.53375065,-0.05390558,-0.105068825,-0.087201014,-0.05085453
542,5.419999999999929,0.807913,-0.5225915,-0.06579652,-0.07467828,-0.085673854,-0.010231993
543,5.429999999999929,0.81571835,-0.51624966,-0.07067485,-0.03970624,-0.062155537,0.041233405
544,5.4399999999999284,0.82706046,-0.53131145,-0.07476046,0.0050396384,-0.031306844,0.103847094
545,5.449999999999928,0.8339511,-0.56094736,-0.06555261,0.056046885,-0.00045814895,0.14676037
546,5.459999999999928,0.8330974,-0.5858269,-0.060369372,0.07925977,0.0021380284,0.14569137
547,5.469999999999928,0.8178526,-0.60046184,-0.037929043,0.07696902,-0.006414085,0.12980886
548,5.479999999999928,0.8178526,-0.60046184,-0.037929043,0.046731193,-0.024892759,0.09666943
549,5.489999999999927,0.7887046,-0.54308045,-0.035550855,-0.05589417,-0.03176499,0.06429356
550,5.499999999999927,0.7852288,-0.5275307,-0.038172957,-0.05589417,-0.03176499,0.06429356
551,5.509999999999927,0.8086447,-0.53033584,-0.036953375,-0.096516706,-0.03191771,0.08857546
552,5.519999999999927,0.83206075,-0.5408852,-0.033172667,-0.13225232,-0.051618114,0.14340061
553,5.5299999999999265,0.8380368,-0.5505809,-0.036892395,-0.15057829,-0.11988231,0.23533584
554,5.539999999999926,0.8380368,-0.5505809,-0.036892395,-0.15057829,-0.11988231,0.23533584
555,5.549999999999926,0.81766963,-0.5711919,-0.03878275,-0.13897185,-0.24190263,0.2848159
556,5.559999999999926,0.81053513,-0.57668,-0.052442085,-0.09056077,-0.34040466,0.31612277
557,5.569999999999926,0.81053513,-0.57668,-0.052442085,-0.09056077,-0.34040466,0.31612277
558,5.5799999999999255,0.81102294,-0.5860708,-0.094212815,-0.09056077,-0.34040466,0.31612277
559,5.589999999999925,0.8240115,-0.5953396,-0.121775396,0.08155051,-0.3098614,0.36483926
560,5.599999999999925,0.8344999,-0.6113771,-0.14000817,0.16157386,-0.20937407,0.37583485
561,5.609999999999925,0.8344999,-0.6113771,-0.14000817,0.16157386,-0.20937407,0.37583485
562,5.619999999999925,0.8210845,-0.6324759,-0.14616705,0.28084528,0.042913284,0.38912117
563,5.629999999999924,0.8210845,-0.6324759,-0.14616705,0.28084528,0.042913284,0.38912117
564,5.639999999999924,0.79333895,-0.63735425,-0.102566965,0.322995,0.18829921,0.3397938
565,5.649999999999924,0.77358174,-0.64759874,-0.06756492,0.31719178,0.21135938,0.24663684
566,5.659999999999924,0.75973946,-0.6607703,-0.04268542,0.28725937,0.1731803,0.17577648
567,5.6699999999999235,0.743397,-0.6675999,-0.01103723,0.23426682,0.11911872,0.09605856
568,5.679999999999923,0.74327505,-0.6621728,-0.0023781876,0.19181168,0.09560041,0.06169739
569,5.689999999999923,0.7734598,-0.63863486,-0.010122542,0.05757405,0.050701816,0.019394971
570,5.699999999999923,0.7929121,-0.6190605,-0.018964522,-0.111177474,0.014202617,0.020922136
571,5.709999999999923,0.81675494,-0.5843634,-0.037685126,-0.24174993,0.05131268,0.08597928
572,5.7199999999999225,0.81675494,-0.5843634,-0.037685126,-0.24174993,0.05131268,0.08597928
573,5.729999999999922,0.8183404,-0.5537518,-0.064820856,-0.25625798,0.08078693,0.22525656
574,5.739999999999922,0.8252311,-0.5566178,-0.0705529,-0.18936823,0.036193766,0.36896262
575,5.749999999999922,0.8243164,-0.5717407,-0.07085779,-0.101556346,-0.010537425,0.49571714
576,5.759999999999922,0.8205357,-0.5859488,-0.073175006,-0.015882496,-0.061239243,0.58093286
577,5.769999999999921,0.81730384,-0.61467,-0.07043094,0.071318515,-0.13500121,0.62949663
578,5.779999999999921,0.8037664,-0.6405862,-0.070735835,0.16508633,-0.22724187,0.63285637
579,5.789999999999921,0.78785086,-0.6582701,-0.074577525,0.20861048,-0.2843578,0.6088799
580,5.799999999999921,0.7587028,-0.6599165,-0.083602436,0.22006421,-0.301462,0.56505036
581,5.809999999999921,0.73437214,-0.6532698,-0.08976133,0.2049453,-0.24663684,0.54275376
582,5.81999999999992,0.7276644,-0.6490013,-0.10354263,0.2049453,-0.24663684,0.54275376
583,5.82999999999992,0.7456533,-0.6459523,-0.1009815,0.07040222,0.038179077,0.56153786
584,5.83999999999992,0.76998395,-0.64967203,-0.10018878,0.025809057,0.10140363,0.5694791
585,5.84999999999992,0.7802894,-0.6515624,-0.10006681,0.017104227,0.10995574,0.5707009
586,5.8599999999999195,0.8115718,-0.6660145,-0.10445731,-0.0027488936,0.12935072,0.5899431
587,5.869999999999919,0.8365122,-0.67266124,-0.10457927,-0.0076358155,0.11713341,0.6047566
588,5.879999999999919,0.86730665,-0.68516195,-0.10659158,-0.01817324,0.056046885,0.61590487
589,5.889999999999919,0.88334423,-0.68650347,-0.10299382,-0.10064005,-0.1947133,0.59559363
590,5.899999999999919,0.8729168,-0.6811983,-0.09000525,-0.15118915,-0.31108314,0.5713117
591,5.909999999999918,0.82779217,-0.6677219,-0.068174705,-0.21777347,-0.39568797,0.5626069
592,5.919999999999918,0.7778503,-0.6524161,-0.05329579,-0.27931812,-0.39721513,0.59773165
593,5.929999999999918,0.737665,-0.65162337,-0.031770147,-0.31658092,-0.36453384,0.6426302
594,5.939999999999918,0.70473623,-0.6570505,-0.0028050416,-0.32711834,-0.29123,0.68508536
595,5.949999999999918,0.6787591,-0.6630265,0.014574022,-0.29871312,-0.18845193,0.72036284
596,5.959999999999917,0.6787591,-0.6630265,0.014574022,-0.2527455,-0.11499538,0.7350236
597,5.969999999999917,0.66570956,-0.676259,0.017013188,-0.204029,-0.07315111,0.72418076
598,5.979999999999917,0.6542455,-0.70266294,-0.0027440626,-0.1282817,-0.0154243475,0.68523806
599,5.989999999999917,0.64869636,-0.7154686,-0.018232772,-0.1282817,-0.0154243475,0.68523806
600,5.9999999999999165,0.62662196,-0.7152246,-0.050124876,0.007330383,0.09392053,0.58169645
601,6.009999999999916,0.62101185,-0.7153466,-0.07750452,0.106137834,0.21655174,0.4998405
602,6.019999999999916,0.6077184,-0.71943223,-0.11122601,0.106137834,0.21655174,0.4998405
603,6.029999999999916,0.59290045,-0.7269327,-0.137569,0.12675454,0.26542094,0.47647488
604,6.039999999999916,0.5978397,-0.7562637,-0.17616881,0.12782355,0.30451632,0.46410486
605,6.0499999999999154,0.5978397,-0.7562637,-0.17616881,0.12782355,0.30451632,0.46410486
606,6.059999999999915,0.5924126,-0.7851068,-0.20214595,0.12782355,0.30451632,0.46410486
607,6.069999999999915,0.6363176,-0.9106629,-0.22354963,-0.0664316,0.1601994,0.34972036
608,6.079999999999915,0.6363176,-0.9106629,-0.22354963,-0.15714508,0.19379699,0.30008754
609,6.089999999999915,0.5989374,-0.95408005,-0.16787565,-0.26083946,0.30665436,0.3100141
610,6.099999999999914,0.5757653,-0.94438434,-0.14238635,-0.33658674,0.42577308,0.33215797
611,6.109999999999914,0.5757653,-0.94438434,-0.14238635,-0.45707992,0.5644395,0.41645738
612,6.119999999999914,0.4841136,-0.85157406,-0.051344458,-0.5242751,0.6068946,0.538325
613,6.129999999999914,0.4841136,-0.85157406,-0.051344458,-0.5242751,0.6068946,0.538325
614,6.1399999999999135,0.46423438,-0.7966318,-0.042502478,-0.56031615,0.59941155,0.6310238
615,6.149999999999913,0.55210537,-0.6935161,0.025367333,-0.56153786,0.4240932,0.8678868
616,6.159999999999913,0.55210537,-0.6935161,0.025367333,-0.46013424,0.25992316,0.91446525
617,6.169999999999913,0.63418335,-0.6690634,0.041953668,-0.36086863,0.11652254,0.8912524
618,6.179999999999913,0.7617518,-0.66918534,0.05933273,-0.22922719,-0.029321533,0.77763146
619,6.1899999999999125,0.7857166,-0.68607664,0.058783915,-0.10399981,-0.0983493,0.6087272
620,6.199999999999912,0.70382154,-0.7086389,0.026586918,0.078343466,-0.1611157,0.3200934
621,6.209999999999912,0.7322379,-0.68839383,0.045612417,0.078343466,-0.1611157,0.3200934
622,6.219999999999912,0.5653379,-0.7637641,-0.03457519,0.1414153,-0.28420505,0.16447547
623,6.229999999999912,0.5653379,-0.7637641,-0.03457519,0.21655174,-0.40240747,0.025961773
624,6.239999999999911,0.4656979,-0.857733,-0.10799411,0.36942077,-0.40530908,-0.11499538
625,6.249999999999911,0.3905106,-0.8850516,-0.12890996,0.4109596,-0.37216964,-0.16264287
626,6.259999999999911,0.32514092,-0.89535713,-0.16836348,0.42164972,-0.31230485,-0.17623462
627,6.269999999999911,0.2742843,-0.89041775,-0.20110929,0.35002577,-0.27488935,-0.1339322
628,6.2799999999999105,0.28507763,-0.8826125,-0.21428078,0.2611449,-0.22159137,-0.08460484
629,6.28999999999991,0.35806966,-0.8845028,-0.19745055,0.12232576,-0.17363845,-0.0759
630,6.29999999999991,0.491736,-0.8858444,-0.11323831,-0.0076358155,-0.122020334,-0.12217305
631,6.30999999999991,0.5450928,-0.8565744,-0.05408852,-0.060628377,-0.06383542,-0.15088372
632,6.31999999999991,0.5907662,-0.80352247,-0.017744938,-0.056963183,-0.024892759,-0.18768835
633,6.3299999999999095,0.5978397,-0.7801065,-0.010183521,-0.02367103,-0.03680463,-0.21319197
634,6.339999999999909,0.6165604,-0.7293108,-0.010610376,0.058184914,-0.12675454,-0.26374108
635,6.349999999999909,0.62131673,-0.71559054,-0.005366167,0.15042557,-0.28008172,-0.33093625
636,6.359999999999909,0.61741406,-0.7161393,-0.009756667,0.2264783,-0.41034874,-0.38621956
637,6.369999999999909,0.6043645,-0.72254217,-0.012256813,0.3210097,-0.5549711,-0.44257188
638,6.379999999999908,0.57302123,-0.73986024,-0.040612124,0.39645153,-0.6253733,-0.47235155
639,6.389999999999908,0.57302123,-0.73986024,-0.040612124,0.48487428,-0.65286225,-0.48762318
640,6.399999999999908,0.5674112,-0.74681187,-0.05866196,0.5656612,-0.6450737,-0.48838675
641,6.409999999999908,0.5614962,-0.75864184,-0.09555435,0.6133087,-0.63499445,-0.4831944
642,6.419999999999908,0.5614962,-0.75864184,-0.09555435,0.6412558,-0.634689,-0.43035457
643,6.429999999999907,0.55594707,-0.7558368,-0.12390967,0.589485,-0.6301075,-0.3830125
644,6.439999999999907,0.55594707,-0.7558368,-0.12390967,0.589485,-0.6301075,-0.3830125
645,6.449999999999907,0.55832523,-0.75437325,-0.122446164,0.4560109,-0.5355761,-0.3036
646,6.459999999999907,0.56503296,-0.75717837,-0.10579886,0.4111123,-0.45173484,-0.2919936
647,6.4699999999999065,0.56686234,-0.75620264,-0.09360302,0.36865717,-0.3371976,-0.29016098
648,6.479999999999906,0.56869173,-0.7605322,-0.08183405,0.34956762,-0.2518292,-0.29443705
649,6.489999999999906,0.57155776,-0.76730084,-0.07439458,0.3465133,-0.16157386,-0.30085114
650,6.499999999999906,0.5686307,-0.7692522,-0.072992064,0.35476,-0.106595986,-0.30100384
651,6.509999999999906,0.57253337,-0.7760209,-0.06945527,0.36178493,-0.0711658,-0.3023783
652,6.519999999999905,0.5789362,-0.79644895,-0.060369372,0.36178493,-0.0711658,-0.3023783
653,6.529999999999905,0.5936932,-0.8056568,-0.07030898,0.36178493,-0.0711658,-0.3023783
654,6.539999999999905,0.59088814,-0.8095594,-0.07713865,0.36743546,0.02397646,-0.35048392
655,6.549999999999905,0.57430184,-0.7970587,-0.08573671,0.3287982,0.12507465,-0.3791946
656,6.559999999999905,0.56594765,-0.7898022,-0.085431814,0.27412578,0.23564127,-0.38866302
657,6.569999999999904,0.56302065,-0.7888265,-0.08591965,0.19349156,0.35842517,-0.37858373
658,6.579999999999904,0.5785094,-0.79016805,-0.07165052,0.056046885,0.5371033,-0.3556763
659,6.589999999999904,0.61784095,-0.7995589,-0.047746688,-0.074067414,0.78038037,-0.4089743
660,6.599999999999904,0.7329696,-0.8007175,-0.011464084,-0.074067414,0.78038037,-0.4089743
661,6.6099999999999035,0.7329696,-0.8007175,-0.011464084,-0.09254608,0.84482664,-0.49006665
662,6.619999999999903,0.793217,-0.8101692,-0.032197,-0.17104226,0.77671516,-0.77778417
663,6.629999999999903,0.86584324,-0.8244384,-0.073723815,-0.23335053,0.6954701,-0.9210321
664,6.639999999999903,0.88761276,-0.8084008,-0.11945819,-0.23335053,0.6954701,-0.9210321
665,6.649999999999903,0.8740144,-0.74138474,-0.16427788,-0.38438696,0.5279403,-1.2588406
666,6.659999999999902,0.8740144,-0.74138474,-0.16427788,-0.42103887,0.48472157,-1.4326317
667,6.669999999999902,0.7838872,-0.65387964,-0.07122366,-0.39629883,0.50915617,-1.5144876
668,6.679999999999902,0.7238227,-0.626317,-0.025916148,-0.3222314,0.5878051,-1.5057828
669,6.689999999999902,0.69833344,-0.61527985,-0.021403689,-0.24694228,0.6226244,-1.4175128
670,6.699999999999902,0.7551051,-0.62015814,0.0075004376,-0.21731532,0.45707992,-1.2623531
671,6.709999999999901,0.7857775,-0.6330857,0.023050126,-0.21792617,0.33017266,-1.181108
672,6.719999999999901,0.7857775,-0.6330857,0.023050126,-0.20265454,0.17913623,-1.0899363
673,6.729999999999901,0.88858837,-0.6551602,0.08963938,-0.14584407,0.080634214,-1.0352639
674,6.739999999999901,0.8760267,-0.6476597,0.020245085,-0.037110064,-0.06505715,-1.0022771
675,6.7499999999999005,0.83206075,-0.6383299,-0.021769563,-0.009468411,-0.18570304,-0.9783007
676,6.7599999999999,0.7974856,-0.6229632,-0.032501895,0.0018325958,-0.2405282,-0.9450085
677,6.7699999999999,0.78291154,-0.6143041,-0.042990312,0.010842858,-0.17684549,-0.89873546
678,6.7799999999999,0.7921194,-0.6006448,-0.04841746,-0.025503624,-0.0842994,-0.87369
679,6.7899999999999,0.8007175,-0.59174186,-0.036770437,-0.07269296,-0.0027488936,-0.8730792
680,6.7999999999998995,0.8069983,-0.58972955,-0.029391957,-0.12583824,0.06154467,-0.8688031
681,6.809999999999899,0.8258409,-0.5886319,-0.012195834,-0.182496,0.08689558,-0.8668178
682,6.819999999999899,0.83017033,-0.59344923,-0.005732042,-0.22266038,0.05971208,-0.8594874
683,6.829999999999899,0.8786488,-0.5653379,0.005610083,-0.25534168,-0.027030786,-0.82634795
684,6.839999999999899,0.88066113,-0.5653379,-0.0017074167,-0.25625798,-0.2759584,-0.7507534
685,6.849999999999898,0.88066113,-0.5653379,-0.0017074167,-0.25625798,-0.2759584,-0.7507534
686,6.859999999999898,0.8748681,-0.54984915,-0.018476687,-0.24205536,-0.41981715,-0.70234233
687,6.869999999999898,0.8748681,-0.54984915,-0.018476687,-0.23335053,-0.4392121,-0.6814202
688,6.879999999999898,0.825414,-0.53222615,-0.056710627,-0.22892176,-0.42332962,-0.6435465
689,6.8899999999998975,0.8190721,-0.5084443,-0.070735835,-0.21746802,-0.36086863,-0.57635134
690,6.899999999999897,0.82346267,-0.4908823,-0.08018761,-0.19486602,-0.29718593,-0.54351735
691,6.909999999999897,0.83962214,-0.49033347,-0.08537084,-0.16264287,-0.23716843,-0.49098295
692,6.919999999999897,0.8717582,-0.48819923,-0.083602436,-0.12889257,-0.1965459,-0.4529566
693,6.929999999999897,0.8991378,-0.50021213,-0.08610259,-0.110872045,-0.1695151,-0.42241332
694,6.9399999999998965,0.92688334,-0.49807784,-0.0863465,-0.10369437,-0.13041973,-0.4250095
695,6.949999999999896,0.9196878,-0.50838333,-0.08823685,-0.10170906,-0.068264194,-0.44837508
696,6.959999999999896,0.90602845,-0.5025903,-0.09384694,-0.108123146,-0.015882496,-0.46089783
697,6.969999999999896,0.88023424,-0.49594358,-0.096591,-0.13912456,0.029168816,-0.46379945
698,6.979999999999896,0.84498835,-0.48496732,-0.09317617,-0.19929479,0.03863723,-0.4298964
699,6.989999999999895,0.8233407,-0.4631368,-0.08098034,-0.27550024,-0.004428773,-0.3408628
700,6.999999999999895,0.82986546,-0.45472166,-0.060552314,-0.27550024,-0.004428773,-0.3408628
701,7.009999999999895,0.82986546,-0.45472166,-0.060552314,-0.27550024,-0.004428773,-0.3408628
702,7.019999999999895,0.8514522,-0.4267322,-0.04268542,-0.3651447,-0.21731532,-0.23900102
703,7.0299999999998946,0.8587696,-0.41404852,-0.045185562,-0.24144448,-0.3324634,-0.28680122
704,7.039999999999894,0.86553836,-0.39746222,-0.053112853,-0.17119499,-0.37598756,-0.2959642
705,7.049999999999894,0.8591355,-0.38386387,-0.056283772,-0.09254608,-0.41829,-0.29153544
706,7.059999999999894,0.8470006,-0.37715617,-0.064272046,0.0067195175,-0.47128254,-0.20250183
707,7.069999999999894,0.8491349,-0.38154665,-0.08030956,0.089491755,-0.51923543,-0.08811731
708,7.0799999999998935,0.8491349,-0.38154665,-0.08030956,0.12583824,-0.5384777,0.0027488936
709,7.089999999999893,0.9022478,-0.41398758,-0.10909174,0.1704314,-0.54641896,0.1498147
710,7.099999999999893,0.9196878,-0.4344156,-0.13104422,0.17501289,-0.5403103,0.20234911
711,7.109999999999893,0.91554123,-0.4539899,-0.14891112,0.14874569,-0.48670688,0.22770002
712,7.119999999999893,0.8948083,-0.47027132,-0.1615948,0.14874569,-0.48670688,0.22770002
713,7.129999999999892,0.87834394,-0.4777108,-0.16848545,0.102319926,-0.3491095,0.23671028
714,7.139999999999892,0.8637699,-0.47777176,-0.17251006,0.102319926,-0.3491095,0.23671028
715,7.149999999999892,0.8637699,-0.47777176,-0.17251006,0.102319926,-0.3491095,0.23671028
716,7.159999999999892,0.8637699,-0.47777176,-0.17251006,0.102319926,-0.3491095,0.23671028
717,7.169999999999892,0.8650505,-0.49033347,-0.14311811,0.016187929,-0.13973543,0.21563543
718,7.179999999999891,0.8589525,-0.48106465,-0.12628786,0.02977968,-0.1432479,0.20845777
719,7.189999999999891,0.85200095,-0.46649066,-0.1235438,0.0421497,-0.16508633,0.22327125
720,7.199999999999891,0.85248876,-0.46112445,-0.122629106,0.056963183,-0.19303341,0.24923302
721,7.209999999999891,0.8617576,-0.46301484,-0.12543415,0.08277224,-0.24297164,0.28863382
722,7.2199999999998905,0.86864823,-0.46880785,-0.12775135,0.098807454,-0.2611449,0.3023783
723,7.22999999999989,0.88060015,-0.48978466,-0.143423,0.1244638,-0.26939157,0.31474832
724,7.23999999999989,0.87749016,-0.5103346,-0.1583629,0.14767668,-0.24617869,0.30497447
725,7.24999999999989,0.87877077,-0.535702,-0.17165637,0.17913623,-0.17760907,0.2742785
726,7.25999999999989,0.8681604,-0.5411291,-0.18482786,0.1994475,-0.09330966,0.24724771
727,7.269999999999889,0.8487081,-0.5330189,-0.19342592,0.2049453,0.017715093,0.21624629
728,7.279999999999889,0.8369391,-0.52429885,-0.19220634,0.2049453,0.017715093,0.21624629
729,7.289999999999889,0.83675617,-0.5140544,-0.17622979,0.13057245,0.15271631,0.17119499
730,7.299999999999889,0.84029293,-0.5066149,-0.14708175,0.060628377,0.19501872,0.16081028
731,7.309999999999889,0.84029293,-0.5066149,-0.14708175,0.060628377,0.19501872,0.16081028
732,7.319999999999888,0.8515131,-0.4985657,-0.104152426,0.009162978,0.14095716,0.22418754
733,7.329999999999888,0.8743193,-0.4877114,-0.09677394,0.03756821,0.05467244,0.29947668
734,7.339999999999888,0.89194226,-0.48813823,-0.105372004,0.09056077,-0.05100725,0.37965274
735,7.349999999999888,0.8960279,-0.4978949,-0.11640923,0.12507465,-0.14355333,0.45249844
736,7.3599999999998875,0.892674,-0.50716376,-0.11921428,0.15592335,-0.24449882,0.5448918
737,7.369999999999887,0.8699898,-0.5195425,-0.13634941,0.19639318,-0.32818735,0.6666067
738,7.379999999999887,0.85791594,-0.53131145,-0.14073992,0.19639318,-0.32818735,0.6666067
739,7.389999999999887,0.85791594,-0.53131145,-0.14073992,0.23380867,-0.33276883,0.7499898
740,7.399999999999887,0.8313289,-0.5514956,-0.14610608,0.24709499,-0.29733866,0.7414377
741,7.4099999999998865,0.8221821,-0.5608254,-0.15391143,0.2556471,-0.27046058,0.70341134
742,7.419999999999886,0.7866922,-0.567899,-0.1595215,0.24755314,-0.27305678,0.63606346
743,7.429999999999886,0.7657154,-0.57436275,-0.15378946,0.2284636,-0.2939789,0.5687156
744,7.439999999999886,0.73101825,-0.57454574,-0.14439867,0.22006421,-0.28680122,0.53801954
745,7.449999999999886,0.7100414,-0.561984,-0.14866722,0.22006421,-0.28680122,0.53801954
746,7.459999999999885,0.7222373,-0.5570447,-0.15348457,0.21945333,-0.22204952,0.5525276
747,7.469999999999885,0.7671179,-0.5558251,-0.16226557,0.22006421,-0.15118915,0.5717699
748,7.479999999999885,0.7671179,-0.5558251,-0.16226557,0.22006421,-0.15118915,0.5717699
749,7.489999999999885,0.8130962,-0.5697284,-0.16750978,0.21548271,-0.056046885,0.6093381
750,7.4999999999998845,0.8210235,-0.5925346,-0.1656804,0.21135938,-0.025503624,0.63239825
751,7.509999999999884,0.8294386,-0.6158896,-0.16580236,0.2171626,0.0050396384,0.6579019
752,7.519999999999884,0.82370657,-0.6325369,-0.16665606,0.2556471,0.05665775,0.6934848
753,7.529999999999884,0.8234017,-0.6486354,-0.17421748,0.28725937,0.066737026,0.7254025
754,7.539999999999884,0.8190112,-0.6549772,-0.16982698,0.31764993,0.070554934,0.75625116
755,7.5499999999998835,0.8110839,-0.6549772,-0.16013129,0.35918877,0.06963864,0.77732605
756,7.559999999999883,0.8016931,-0.64869636,-0.15006974,0.3996586,0.07727446,0.7664832
757,7.569999999999883,0.7424823,-0.6188166,-0.14714272,0.47219884,0.11285736,0.6835582
758,7.579999999999883,0.7215055,-0.61649936,-0.14641099,0.47219884,0.11285736,0.6835582
759,7.589999999999883,0.70113844,-0.61857265,-0.15196009,0.4718934,0.16661349,0.6443101
760,7.599999999999882,0.70113844,-0.61857265,-0.15196009,0.32589662,0.24129178,0.60139686
761,7.609999999999882,0.6734539,-0.63826895,-0.14952092,0.32589662,0.24129178,0.60139686
762,7.619999999999882,0.6760151,-0.6847961,-0.087566085,0.01038471,0.4017966,0.70402217
763,7.629999999999882,0.7051631,-0.6947966,-0.06811373,0.01038471,0.4017966,0.70402217
764,7.6399999999998816,0.7326037,-0.69376,-0.08787098,-0.05085453,0.81413066,0.78877974
765,7.649999999999881,0.7326037,-0.69376,-0.08787098,-0.039553523,0.91431254,0.8190176
766,7.659999999999881,0.7499218,-0.6873572,-0.11409202,-0.039553523,0.91431254,0.8190176
767,7.669999999999881,0.78467995,-0.6959552,-0.12628786,0.035124753,0.86849767,0.8881981
768,7.679999999999881,0.7944366,-0.7061388,-0.11823861,0.081397794,0.7272351,0.9111055
769,7.6899999999998805,0.8110839,-0.71479785,-0.12482436,0.07925977,0.5319109,0.9204212
770,7.69999999999988,0.8198649,-0.71668816,-0.121775396,0.02565634,0.35460728,0.89873546
771,7.70999999999988,0.8272434,-0.714249,-0.12903193,-0.07941248,0.17440203,0.8596401
772,7.71999999999988,0.83212173,-0.7156515,-0.12799528,-0.15561792,0.09819659,0.7996226
773,7.72999999999988,0.8043762,-0.71052927,-0.13952033,-0.32589662,0.041996986,0.6776023
774,7.739999999999879,0.77852106,-0.7208957,-0.12701961,-0.44806966,0.04841107,0.6094908
775,7.749999999999879,0.76967907,-0.72918886,-0.11775078,-0.59742624,0.08032878,0.5412266
776,7.759999999999879,0.7528488,-0.75644654,-0.07274815,-0.71959925,0.09407325,0.47067168
777,7.769999999999879,0.72851807,-0.77150846,-0.019208437,-0.7473936,0.10720685,0.40194935
778,7.779999999999879,0.6841862,-0.80760807,0.050002918,-0.5131268,0.22678372,0.17531833
779,7.789999999999878,0.6841862,-0.80760807,0.050002918,-0.5131268,0.22678372,0.17531833
780,7.799999999999878,0.63796407,-0.81864536,0.045795355,-0.28221974,0.26832256,0.024892759
781,7.809999999999878,0.55527633,-0.8451712,-0.006890646,-0.0143553335,0.28313604,-0.12873985
782,7.819999999999878,0.55527633,-0.8451712,-0.006890646,0.39446622,0.19868392,-0.3680463
783,7.8299999999998775,0.46758825,-0.9319446,-0.15775311,0.48548517,0.17348573,-0.41874814
784,7.839999999999877,0.40441385,-0.93499357,-0.2250741,0.49495357,0.19074267,-0.3747658
785,7.849999999999877,0.3406906,-0.92682236,-0.2920902,0.3501785,0.21212296,-0.16539176
786,7.859999999999877,0.33989787,-0.91328496,-0.31617698,0.3501785,0.21212296,-0.16539176
787,7.869999999999877,0.3825223,-0.86913604,-0.3187381,-0.18784106,0.2938262,0.39370266
788,7.879999999999876,0.4399037,-0.8199868,-0.28416294,-0.4503604,0.34865135,0.6058256
789,7.889999999999876,0.5017976,-0.7715694,-0.21495157,-0.6881397,0.38896844,0.78893244
790,7.899999999999876,0.6545504,-0.7306524,-0.055552024,-0.6881397,0.38896844,0.78893244
791,7.909999999999876,0.7017483,-0.7018092,0.034270294,-0.9465357,0.54504454,0.9775371
792,7.919999999999876,0.7704108,-0.6716855,0.1686074,-0.86819226,0.60048056,0.92271197
793,7.929999999999875,0.79882705,-0.6211338,0.22428137,-0.4251622,0.56123245,0.6272059
794,7.939999999999875,0.7966318,-0.5836316,0.22720838,-0.4251622,0.56123245,0.6272059
795,7.949999999999875,0.7754111,-0.5317993,0.17275399,-0.1693624,0.40882155,0.45448375
796,7.959999999999875,0.75864184,-0.5830828,0.025062438,0.20387627,-0.12889257,0.16661349
797,7.9699999999998745,0.75864184,-0.5830828,0.025062438,0.20387627,-0.12889257,0.16661349
798,7.979999999999874,0.7502877,-0.52490866,0.0954324,0.06261369,0.14996742,0.29428434
799,7.989999999999874,0.66455096,-0.79583913,-0.043417167,0.40775254,-0.5224425,-0.24633141
800,7.999999999999874,0.52033526,-0.87962455,-0.047258858,0.40775254,-0.5224425,-0.24633141
801,8.009999999999874,0.42191488,-0.90419906,-0.04323423,0.39752057,-0.33108896,-0.41981715
802,8.019999999999873,0.33733675,-0.9085286,-0.05799119,0.36911532,-0.28496864,-0.44089198
803,8.029999999999873,0.33733675,-0.9085286,-0.05799119,0.36911532,-0.28496864,-0.44089198
804,8.039999999999873,0.295627,-0.9113337,-0.08226089,0.3222314,-0.26450464,-0.420428
805,8.049999999999873,0.2853825,-0.8984061,-0.13415417,0.24831672,-0.25870144,-0.3378085
806,8.059999999999873,0.39977944,-0.85352546,-0.19543824,0.0786489,-0.20693061,-0.098043874
807,8.069999999999872,0.47984505,-0.8101692,-0.18738899,0.021991149,-0.20234911,-0.045814894
808,8.079999999999872,0.53643376,-0.77364266,-0.16287535,0.021991149,-0.20234911,-0.045814894
809,8.089999999999872,0.5672282,-0.75047064,-0.13415417,-0.052381694,-0.24556783,-0.058337633
810,8.099999999999872,0.5857659,-0.73120123,-0.100554645,-0.053603426,-0.23701571,-0.07803804
811,8.109999999999872,0.6095478,-0.7119318,-0.053783625,-0.017104227,-0.18677205,-0.09392053
812,8.119999999999871,0.62967086,-0.6976017,-0.025977125,0.05467244,-0.10827587,-0.110872045
813,8.129999999999871,0.6424155,-0.6740027,-0.00030489583,0.12415836,-0.04795292,-0.12782355
814,8.139999999999871,0.6424155,-0.6740027,-0.00030489583,0.21197024,0.00870483,-0.14828753
815,8.14999999999987,0.646867,-0.67107576,-0.0042075627,0.3555236,0.013133603,-0.18768835
816,8.15999999999987,0.65253806,-0.68333256,-0.030306645,0.3555236,0.013133603,-0.18768835
817,8.16999999999987,0.65253806,-0.68333256,-0.030306645,0.4036292,-0.02076942,-0.19349156
818,8.17999999999987,0.6728441,-0.7139441,-0.04189269,0.47418416,-0.0936151,-0.23060162
819,8.18999999999987,0.6728441,-0.7139441,-0.04189269,0.47418416,-0.0936151,-0.23060162
820,8.19999999999987,0.690711,-0.752361,-0.053417753,0.48701233,-0.0936151,-0.33078352
821,8.20999999999987,0.6826008,-0.77431345,-0.055186145,0.4531093,-0.084146686,-0.39354995
822,8.21999999999987,0.6826008,-0.77431345,-0.055186145,0.4531093,-0.084146686,-0.39354995
823,8.229999999999869,0.6676609,-0.81340116,-0.052442085,0.3501785,-0.033750303,-0.46410486
824,8.239999999999869,0.6676609,-0.81340116,-0.052442085,0.3501785,-0.033750303,-0.46410486
825,8.249999999999869,0.66570956,-0.83047533,-0.042502478,0.2835942,0.068264194,-0.5297729
826,8.259999999999868,0.6506477,-0.8242554,-0.047075916,0.27351493,0.1414153,-0.5656612
827,8.269999999999868,0.6394885,-0.8102302,-0.06347931,0.24740042,0.20341812,-0.590554
828,8.279999999999868,0.6504038,-0.8029127,-0.08585867,0.20830505,0.21533,-0.6189592
829,8.289999999999868,0.6592458,-0.7877899,-0.10543298,0.14263703,0.20387627,-0.67073005
830,8.299999999999867,0.6607703,-0.7625445,-0.12427554,0.035430185,0.17623462,-0.7507534
831,8.309999999999867,0.67381984,-0.749251,-0.11897036,-0.07925977,0.17302758,-0.8248208
832,8.319999999999867,0.6979676,-0.74321413,-0.10317675,-0.17104226,0.20891592,-0.8892671
833,8.329999999999867,0.72107863,-0.725957,-0.08659042,-0.26190847,0.28878653,-0.9622655
834,8.339999999999867,0.75833696,-0.71735895,-0.06097917,-0.32543847,0.33215797,-1.0351112
835,8.349999999999866,0.7637031,-0.7144319,-0.064394,-0.39614612,0.35353827,-1.1236867
836,8.359999999999866,0.8159013,-0.7057119,-0.025489293,-0.44593164,0.34468073,-1.187522
837,8.369999999999866,0.8159013,-0.7057119,-0.025489293,-0.46883908,0.3407101,-1.2513574
838,8.379999999999866,0.81291324,-0.69156474,-0.025184397,-0.46120325,0.31871894,-1.2731959
839,8.389999999999866,0.7968757,-0.67516136,-0.03969744,-0.4167628,0.21426098,-1.1757629
840,8.399999999999865,0.7968757,-0.67516136,-0.03969744,-0.4167628,0.21426098,-1.1757629
841,8.409999999999865,0.80443716,-0.64680606,-0.035550855,-0.29810223,0.09560041,-0.9947941
842,8.419999999999865,0.77675265,-0.6227193,-0.0570765,-0.25167647,0.038789943,-0.90117896
843,8.429999999999865,0.79553425,-0.60595,-0.04494165,-0.25167647,0.038789943,-0.90117896
844,8.439999999999864,0.84126866,-0.620707,-0.028172374,-0.25167647,0.038789943,-0.90117896
845,8.449999999999864,0.84126866,-0.620707,-0.028172374,-0.25167647,0.038789943,-0.90117896
846,8.459999999999864,0.8204137,-0.6344882,-0.027257688,-0.15515977,-0.21792617,-0.7466301
847,8.469999999999864,0.80736417,-0.64143986,-0.036587503,-0.1525636,-0.24358252,-0.7244862
848,8.479999999999864,0.80736417,-0.64143986,-0.036587503,-0.1525636,-0.24358252,-0.7244862
849,8.489999999999863,0.77992356,-0.6334516,-0.072443254,-0.27290404,-0.10995574,-0.64996064
850,8.499999999999863,0.7901071,-0.6265609,-0.077382565,-0.3277292,-0.0125227375,-0.6262896
851,8.509999999999863,0.7755331,-0.614548,-0.08793196,-0.3277292,-0.0125227375,-0.6262896
852,8.519999999999863,0.76705694,-0.56393534,-0.095920235,-0.41431937,0.20677789,-0.5384777
853,8.529999999999863,0.76150787,-0.53808016,-0.09238344,-0.42714754,0.24449882,-0.49953505
854,8.539999999999862,0.77815515,-0.5116152,-0.07110171,-0.4202753,0.2593123,-0.441961
855,8.549999999999862,0.87816095,-0.4265493,-0.028782167,-0.3923282,0.23762658,-0.37690386
856,8.559999999999862,0.94218916,-0.39977944,-0.012378771,-0.2060143,-0.011301007,-0.26710084
857,8.569999999999862,0.94218916,-0.39977944,-0.012378771,-0.2060143,-0.011301007,-0.26710084
858,8.579999999999862,0.97560567,-0.39563283,0.002561125,-0.09819659,-0.20937407,-0.27152961
859,8.589999999999861,0.89377165,-0.447831,-0.019086478,0.039095376,-0.37827832,-0.23457226
860,8.599999999999861,0.8346828,-0.48777235,-0.034758125,0.10842858,-0.48731774,-0.013591751
861,8.60999999999986,0.8154134,-0.5182619,-0.084761046,0.064751714,-0.39354995,0.013897184
862,8.61999999999986,0.8193771,-0.5413121,-0.131715,0.02321288,-0.2657264,0.022907447
863,8.62999999999986,0.82370657,-0.50570023,-0.14384985,-0.012675454,-0.086437434,0.056199603
864,8.63999999999986,0.834256,-0.5109445,-0.122202255,-0.012675454,-0.086437434,0.056199603
865,8.64999999999986,0.8491349,-0.5195425,-0.09610317,-0.027947085,0.07849618,0.16432275
866,8.65999999999986,0.857733,-0.5388729,-0.06854059,-0.010995574,0.08231409,0.19379699
867,8.66999999999986,0.8334633,-0.5512517,-0.0705529,0.022296581,0.06047566,0.17333302
868,8.67999999999986,0.8034005,-0.5524103,-0.082077965,0.040927973,0.051923547,0.14767668
869,8.68999999999986,0.7863874,-0.5496662,-0.09006623,0.04718934,0.054367006,0.12568553
870,8.699999999999859,0.787363,-0.5510687,-0.08854175,0.041080687,0.054367006,0.1085813
871,8.709999999999859,0.81779164,-0.54741,-0.06347931,0.04138612,0.026267206,0.111177474
872,8.719999999999859,0.83675617,-0.55216634,-0.05786923,0.04138612,0.026267206,0.111177474
873,8.729999999999858,0.85431814,-0.5549714,-0.05713748,0.08246681,-0.07345655,0.11911872
874,8.739999999999858,0.8615746,-0.5744847,-0.085614756,0.1207986,-0.14401148,0.15027285
875,8.749999999999858,0.8615746,-0.5744847,-0.085614756,0.1207986,-0.14401148,0.15027285
876,8.759999999999858,0.8539522,-0.5789972,-0.09976192,0.12034045,-0.11591168,0.18325958
877,8.769999999999857,0.8505984,-0.57954603,-0.110006414,0.10247265,-0.04520403,0.22678372
878,8.779999999999857,0.8476714,-0.57954603,-0.10610375,0.0759,0.029168816,0.26190847
879,8.789999999999857,0.84078074,-0.57954603,-0.10037171,0.06078109,0.068264194,0.27748555
880,8.799999999999857,0.825475,-0.5752165,-0.08738314,0.023365596,0.13148874,0.3100141
881,8.809999999999857,0.8249872,-0.57619214,-0.083480485,0.017256944,0.13271047,0.3136793
882,8.819999999999856,0.82803607,-0.59113204,-0.037929043,-0.016340645,0.021380283,0.344528
883,8.829999999999856,0.81980395,-0.59997404,-0.041343875,-0.0067195175,-0.10919216,0.32910365
884,8.839999999999856,0.81212056,-0.602962,-0.049637042,0.0076358155,-0.20799962,0.3051272
885,8.849999999999856,0.79626596,-0.59631526,-0.078663126,0.03634648,-0.25793785,0.27382034
886,8.859999999999856,0.7916316,-0.58570486,-0.108055085,0.05222898,-0.23335053,0.26282477
887,8.869999999999855,0.79029,-0.570704,-0.12872702,0.05757405,-0.13194689,0.27091873
888,8.879999999999855,0.79370487,-0.56045955,-0.13470298,0.056505036,-0.007483099,0.29123
889,8.889999999999855,0.7974856,-0.55698377,-0.122507155,0.05390886,0.13897185,0.33093625
890,8.899999999999855,0.8220601,-0.5869245,-0.079516836,0.06291912,0.20998493,0.37232238
891,8.909999999999854,0.8220601,-0.5869245,-0.079516836,0.08827003,0.21013765,0.41905355
892,8.919999999999854,0.8220601,-0.5869245,-0.079516836,0.08827003,0.21013765,0.41905355
893,8.929999999999854,0.8220601,-0.5869245,-0.079516836,0.15470162,-0.009010263,0.46929723
894,8.939999999999854,0.80016863,-0.6327808,-0.050856624,0.20799962,-0.22357668,0.4202753
895,8.949999999999854,0.80016863,-0.6327808,-0.050856624,0.20799962,-0.22357668,0.4202753
896,8.959999999999853,0.77449644,-0.64028126,-0.0661624,0.20738874,-0.27382034,0.36911532
897,8.969999999999853,0.7591297,-0.65211123,-0.08470006,0.12705997,-0.18387043,0.38530326
898,8.979999999999853,0.8012663,-0.65436745,-0.10031073,0.09086621,-0.07666359,0.36392298
899,8.989999999999853,0.8012663,-0.65436745,-0.10031073,0.08811731,-0.0010690142,0.3231477
900,8.999999999999853,0.76821554,-0.6161945,-0.13378829,0.10338894,0.13805555,0.24205536
901,9.009999999999852,0.72370076,-0.58820504,-0.13598356,0.121256754,0.23441954,0.20861048
902,9.019999999999852,0.72370076,-0.58820504,-0.13598356,0.121256754,0.23441954,0.20861048
903,9.029999999999852,0.70333374,-0.5939981,-0.09518848,0.08109236,0.29657507,0.27550024
904,9.039999999999852,0.7455923,-0.6091209,-0.021525647,0.032375857,0.32696563,0.39492437
905,9.049999999999851,0.7616298,-0.6177799,-0.01097625,0.01985312,0.3306308,0.45112398
906,9.059999999999851,0.7998637,-0.63009775,0.02414775,0.023365596,0.28680122,0.5222898
907,9.069999999999851,0.781509,-0.63363457,0.007927292,0.04734206,0.17837265,0.5656612
908,9.07999999999985,0.8027297,-0.64967203,-0.0062808543,0.07147124,0.0065668016,0.6301075
909,9.08999999999985,0.79309505,-0.6531479,-0.017562,0.11438452,-0.17256944,0.6592763
910,9.09999999999985,0.7826676,-0.658697,-0.04439283,0.18127427,-0.31490102,0.698219
911,9.10999999999985,0.7838872,-0.66314846,-0.06286953,0.21594086,-0.36102137,0.71578133
912,9.11999999999985,0.78876555,-0.67540526,-0.10848194,0.24785857,-0.37415496,0.72219545
913,9.12999999999985,0.78876555,-0.67540526,-0.10848194,0.22036964,-0.32070425,0.7425067
914,9.13999999999985,0.82071865,-0.69382095,-0.12397064,0.18051068,-0.23304509,0.7370089
915,9.14999999999985,0.82071865,-0.69382095,-0.12397064,0.1085813,-0.105374254,0.72509706
916,9.15999999999985,0.86273324,-0.7140051,-0.12427554,-0.005955936,0.002443461,0.66996646
917,9.169999999999849,0.8582818,-0.70333374,-0.12299499,-0.0580322,-0.014966198,0.6122397
918,9.179999999999849,0.86864823,-0.7197981,-0.124641426,-0.111635625,-0.12782355,0.4998405
919,9.189999999999849,0.8383416,-0.7194932,-0.11427496,-0.17867808,-0.2602286,0.39843684
920,9.199999999999848,0.8383416,-0.7194932,-0.11427496,-0.17867808,-0.2602286,0.39843684
921,9.209999999999848,0.8045591,-0.71870047,-0.10146933,-0.26160303,-0.4098906,0.31413746
922,9.219999999999848,0.6822349,-0.71376115,-0.004756375,-0.4016439,-0.45723262,0.24617869
923,9.229999999999848,0.6822349,-0.71376115,-0.004756375,-0.4016439,-0.45723262,0.24617869
924,9.239999999999847,0.6210728,-0.7033947,0.010061563,-0.27290404,-0.019394971,0.2660318
925,9.249999999999847,0.61082834,-0.6976017,0.005488125,-0.20173825,0.13240504,0.27672195
926,9.259999999999847,0.6004009,-0.70211416,-0.021830542,-0.10445796,0.21242839,0.28680122
927,9.269999999999847,0.59582746,-0.71248055,-0.045124583,-0.018478673,0.17272215,0.2863431
928,9.279999999999847,0.59582746,-0.71248055,-0.045124583,-0.018478673,0.17272215,0.2863431
929,9.289999999999846,0.6255853,-0.7821798,-0.102445,0.063682705,0.013286319,0.28878653
930,9.299999999999846,0.63119537,-0.8007175,-0.11921428,0.04184427,-0.030695979,0.3022256
931,9.309999999999846,0.6387568,-0.8211454,-0.13305654,-0.012370021,-0.032223143,0.3642284
932,9.319999999999846,0.63826895,-0.8060836,-0.14147167,-0.04184427,0.06291912,0.45662177
933,9.329999999999846,0.6861986,-0.78492385,-0.16659509,-0.049021937,0.17165314,0.49541172
934,9.339999999999845,0.6861986,-0.78492385,-0.16659509,-0.045814894,0.2228131,0.49754974
935,9.349999999999845,0.6905891,-0.77175236,-0.17940071,-0.052839845,0.20326541,0.4804455
936,9.359999999999845,0.6803446,-0.7645568,-0.18202282,-0.04627304,0.16661349,0.46120325
937,9.369999999999845,0.65644073,-0.76272744,-0.17842504,-0.03634648,0.14721853,0.45265114
938,9.379999999999844,0.60631585,-0.7546782,-0.14635001,-0.10399981,0.023518313,0.46502116
939,9.389999999999844,0.570765,-0.74351895,-0.10543298,-0.16142114,-0.02687807,0.48808134
940,9.399999999999844,0.570765,-0.74351895,-0.10543298,-0.16142114,-0.02687807,0.48808134
941,9.409999999999844,0.5040538,-0.69241846,0.0078053335,-0.20357084,-0.0013744468,0.5856671
942,9.419999999999844,0.5202743,-0.7158345,-0.041465834,-0.19394971,0.073303826,0.6783658
943,9.429999999999843,0.52521354,-0.679003,0.030245667,-0.0664316,0.23793201,0.86070913
944,9.439999999999843,0.5685698,-0.6753443,0.029696856,-0.0664316,0.23793201,0.86070913
945,9.449999999999843,0.6257682,-0.6862595,0.015305771,0.12507465,0.116980694,0.75854194
946,9.459999999999843,0.70058966,-0.74004316,-0.021830542,0.23167065,-0.026725354,0.52610767
947,9.469999999999843,0.69125986,-0.7665081,-0.04835648,0.2753475,-0.1525636,0.33108896
948,9.479999999999842,0.64436686,-0.8063275,-0.06786981,0.26648995,-0.24816401,0.095294975
949,9.489999999999842,0.5867415,-0.84956175,-0.07762648,0.22617286,-0.20097467,0.0154243475
950,9.499999999999842,0.5499711,-0.88736886,-0.08537084,0.1742493,-0.13057245,-0.0096211275
951,9.509999999999842,0.5096639,-0.9022478,-0.09287128,0.06688975,-0.017715093,-0.013286319
952,9.519999999999841,0.48472342,-0.8955401,-0.083480485,-0.025503624,0.037873644,-0.0067195175
953,9.529999999999841,0.44307464,-0.87810004,-0.027562585,-0.03359759,0.009773844,-0.0421497
954,9.539999999999841,0.42136607,-0.88151485,0.0010366458,0.0067195175,-0.09025534,-0.10995574
955,9.54999999999984,0.40880433,-0.901577,-0.00512225,0.07009678,-0.29749137,-0.19440787
956,9.55999999999984,0.491797,-0.9090774,-0.0515274,0.09636399,-0.3594942,-0.19394971
957,9.56999999999984,0.5513126,-0.85084236,-0.096042186,0.102319926,-0.34483343,-0.19394971
958,9.57999999999984,0.5513126,-0.85084236,-0.096042186,0.102319926,-0.32528573,-0.21487185
959,9.58999999999984,0.5232622,-0.7472997,-0.13067836,0.06352998,-0.32452217,-0.3043636
960,9.59999999999984,0.5232622,-0.7472997,-0.13067836,0.06352998,-0.32452217,-0.3043636
961,9.60999999999984,0.5103346,-0.7069315,-0.12549512,0.010842858,-0.300393,-0.3182608
962,9.61999999999984,0.51679844,-0.6902232,-0.1027499,0.0070249503,-0.29565877,-0.30741793
963,9.62999999999984,0.51679844,-0.6902232,-0.1027499,0.0070249503,-0.29565877,-0.30741793
964,9.639999999999839,0.54442203,-0.69004023,-0.086834334,0.04596761,-0.28069258,-0.27168232
965,9.649999999999839,0.5697893,-0.69473565,-0.084578104,0.087201014,-0.26083946,-0.24587326
966,9.659999999999838,0.6024742,-0.70376056,-0.08415125,0.087201014,-0.26083946,-0.24587326
967,9.669999999999838,0.62540233,-0.70900476,-0.08238286,0.15943582,-0.27000242,-0.21105394
968,9.679999999999838,0.6492452,-0.71077317,-0.072870106,0.15943582,-0.27000242,-0.21105394
969,9.689999999999838,0.6612581,-0.70918775,-0.056710627,0.28496864,-0.35720345,-0.205098
970,9.699999999999838,0.6630875,-0.71010244,-0.04451479,0.33292156,-0.38728857,-0.20463985
971,9.709999999999837,0.6605873,-0.7174199,-0.032745812,0.42424592,-0.46609017,-0.2049453
972,9.719999999999837,0.661563,-0.7241886,-0.030184686,0.46395215,-0.52320606,-0.21181752
973,9.729999999999837,0.6639412,-0.7363235,-0.015915563,0.52213705,-0.58032197,-0.24785857
974,9.739999999999837,0.66412413,-0.7582759,-0.020976834,0.5902485,-0.61422503,-0.33658674
975,9.749999999999837,0.61857265,-0.77467936,-0.037807085,0.5902485,-0.61422503,-0.33658674
976,9.759999999999836,0.6064378,-0.77967966,-0.045185562,0.66630125,-0.48456886,-0.505491
977,9.769999999999836,0.5789972,-0.79644895,-0.069577225,0.65194595,-0.28710666,-0.61651576
978,9.779999999999836,0.5500321,-0.80016863,-0.09470064,0.59849524,-0.1337795,-0.679893
979,9.789999999999836,0.5200913,-0.81212056,-0.11384811,0.44348818,0.1910481,-0.7861836
980,9.799999999999836,0.49929744,-0.82931674,-0.122629106,0.37507126,0.34666604,-0.82512623
981,9.809999999999835,0.49435812,-0.860599,-0.14567922,0.205098,0.66416323,-0.8739954
982,9.819999999999835,0.48862606,-0.8709045,-0.15244792,0.15195273,0.7357872,-0.88071495
983,9.829999999999835,0.48197934,-0.88169783,-0.16507061,0.02565634,0.90224797,-0.86391616
984,9.839999999999835,0.48935783,-0.88310033,-0.16641214,-0.18280143,1.0279335,-0.7959574
985,9.849999999999834,0.50679785,-0.8639529,-0.16007032,-0.3295618,0.95386606,-0.7367035
986,9.859999999999834,0.50679785,-0.8639529,-0.16007032,-0.3295618,0.95386606,-0.7367035
987,9.869999999999834,0.55600804,-0.8319388,-0.13958131,-0.4540256,0.84711736,-0.6722572
988,9.879999999999834,0.55600804,-0.8319388,-0.13958131,-0.5215262,0.80649483,-0.5991061
989,9.889999999999834,0.73077434,-0.7490681,-0.014574022,-0.5215262,0.80649483,-0.5991061
990,9.899999999999833,0.8441346,-0.70400447,-0.020306062,-0.5215262,0.80649483,-0.5991061
991,9.909999999999833,0.95420206,-0.6721733,-0.028904125,-0.32589662,0.65118235,-0.73792523
992,9.919999999999833,1.053781,-0.62960994,-0.019147458,-0.3080288,0.49006665,-0.88025683
993,9.929999999999833,1.1537259,-0.5894856,0.0032928751,-0.2677117,0.2846632,-1.2044735
994,9.939999999999833,1.2122658,-0.5362508,0.06317442,-0.2677117,0.2846632,-1.2044735
995,9.949999999999832,1.1265901,-0.5422268,0.053112853,-0.15745051,0.2612976,-1.7957911
996,9.959999999999832,0.7557758,-0.5655818,0.005854,-0.1366811,0.25167647,-1.7712038
997,9.969999999999832,0.7692522,-0.55326396,0.01603752,-0.19272798,0.09468412,-1.2142473
998,9.979999999999832,0.7975465,-0.55600804,0.01750102,-0.1966986,0.024129177,-1.0732902
999,9.989999999999831,0.8392563,-0.60113263,0.014391083,-0.22571471,-0.10644327,-0.97387195
1000,9.999999999999831,0.85248876,-0.6224753,0.019696271,-0.27046058,-0.22861631,-0.89659745
