id,timestamp,acc_x,acc_y,acc_z,gyro_x,gyro_y,gyro_z
0,0,0.01536675,-0.3319706,0.7004677,-3.315013,-1.2681563,1.3976597
1,0.01,-0.048905294,-0.10915271,0.5572277,-3.315013,-1.2681563,1.3976597
2,0.02,-0.048905294,-0.10915271,0.5572277,-1.4022411,-3.1199942,1.422247
3,0.03,-0.010366458,-0.029818814,0.4557583,-0.39400807,-3.9154935,1.3976597
4,0.04,-0.010366458,-0.029818814,0.4557583,-0.39400807,-3.9154935,1.3976597
5,0.05,0.08695629,-0.033355605,0.37398523,0.46868637,-4.590347,1.1782063
6,0.060000000000000005,0.11134796,-0.088846646,0.3583136,0.6647741,-4.5049787,1.0665708
7,0.07,0.16019227,-0.18116911,0.35556954,0.8054258,-3.9548943,1.0151054
8,0.08,0.23434295,-0.30343235,0.37044844,0.8929323,-3.1097622,1.0512991
9,0.09,0.23434295,-0.30343235,0.37044844,0.8929323,-3.1097622,1.0512991
10,0.09999999999999999,1.4019111,-1.5230157,-2.0330455,-4.0999746,-4.3172903,-0.09712757
11,0.10999999999999999,1.3567255,-1.8333387,-1.3162963,-5.4061575,-1.7548631,-0.8596401
12,0.11999999999999998,1.3567255,-1.8333387,-1.3162963,-5.4061575,-1.7548631,-0.8596401
13,0.12999999999999998,1.3567255,-1.8333387,-1.3162963,-5.4061575,-1.7548631,-0.8596401
14,0.13999999999999999,1.3567255,-1.8333387,-1.3162963,-5.4061575,-1.7548631,-0.8596401
15,0.15,0.7569344,-1.9705418,0.32507995,2.5207355,3.7093265,-1.119716
16,0.16,0.6015595,-1.8730972,0.45630714,2.5207355,3.7093265,-1.119716
17,0.17,0.6015595,-1.8730972,0.45630714,2.5207355,3.7093265,-1.119716
18,0.18000000000000002,0.44624552,-1.1839105,0.023294043,3.2407928,0.94225967,0.64934975
19,0.19000000000000003,0.44624552,-1.1839105,0.023294043,3.009275,1.2313516,0.6919576
20,0.20000000000000004,0.3409955,-0.8815758,-0.014635001,2.8125763,1.5972599,0.5363397
21,0.21000000000000005,0.17275399,-0.43575716,-0.02420873,2.7186558,1.7881553,0.4382958
22,0.22000000000000006,0.11829959,-0.29520014,-0.025489293,2.6210701,2.1997259,0.23289238
23,0.23000000000000007,0.11829959,-0.29520014,-0.025489293,2.6210701,2.1997259,0.23289238
24,0.24000000000000007,0.058966853,-0.09232246,-0.012500729,2.7290404,2.5372288,0.18448131
25,0.25000000000000006,0.049454104,-0.05286894,-0.011159187,2.801428,2.687807,0.17455475
26,0.26000000000000006,-0.042136606,0.16379005,-0.79150957,2.7360654,2.7582092,0.17501289
27,0.2700000000000001,-0.15141128,0.28702894,-1.3525789,1.9222403,1.6557503,0.20631973
28,0.2800000000000001,-0.28867537,0.304408,-1.431669,1.1016954,0.1469131,0.2648101
29,0.2900000000000001,-0.28166276,0.20147517,-0.89035684,0.56092703,-1.4052955,0.31429017
30,0.3000000000000001,-0.28166276,0.20147517,-0.89035684,0.66889745,-1.7269161,0.28206703
31,0.3100000000000001,-0.06238169,-0.028355313,-0.05250306,1.4333953,-1.1133019,0.08979719
32,0.3200000000000001,0.00030489583,-0.059881546,0.03378246,1.7823521,-0.4718934,-0.087964594
33,0.3300000000000001,-0.005610083,-0.084029295,-0.041038983,1.8220583,-0.17027868,-0.16371189
34,0.34000000000000014,-0.005610083,-0.084029295,-0.041038983,1.68553,0.43172902,-0.21838433
35,0.35000000000000014,0.021586625,-0.19312102,-0.069638215,1.68553,0.43172902,-0.21838433
36,0.36000000000000015,0.021586625,-0.19312102,-0.069638215,1.68553,0.43172902,-0.21838433
37,0.37000000000000016,0.021586625,-0.19312102,-0.069638215,1.68553,0.43172902,-0.21838433
38,0.38000000000000017,0.021586625,-0.19312102,-0.069638215,1.68553,0.43172902,-0.21838433
39,0.3900000000000002,0.021586625,-0.19312102,-0.069638215,0.6044512,2.1594086,-0.2837469
40,0.4000000000000002,1.7013798,-5.5714836,-1.3998988,0.16417004,10.946705,-1.4147639
41,0.4100000000000002,1.8587061,-4.0204782,-2.8169327,-1.5989398,6.2202883,-1.4654657
42,0.4200000000000002,1.8587061,-4.0204782,-2.8169327,-1.5989398,6.2202883,-1.4654657
43,0.4300000000000002,1.8587061,-4.0204782,-2.8169327,-1.5989398,6.2202883,-1.4654657
44,0.4400000000000002,1.8587061,-4.0204782,-2.8169327,-1.5989398,6.2202883,-1.4654657
45,0.45000000000000023,1.4163631,-2.7618685,-1.9134042,-1.5989398,6.2202883,-1.4654657
46,0.46000000000000024,0.47057623,-0.86437976,0.23013538,-4.459622,-0.55863625,-0.70325863
47,0.47000000000000025,0.3732535,-0.57997286,0.34166628,-3.9619193,-1.269378,-0.6666067
48,0.48000000000000026,0.3732535,-0.57997286,0.34166628,-3.6381607,-1.9130772,-0.708451
49,0.49000000000000027,0.3732535,-0.57997286,0.34166628,-3.6381607,-1.9130772,-0.708451
50,0.5000000000000002,0.3732535,-0.57997286,0.34166628,-3.6381607,-1.9130772,-0.708451
51,0.5100000000000002,0.3732535,-0.57997286,0.34166628,-3.6381607,-1.9130772,-0.708451
52,0.5200000000000002,0.14317909,0.04768571,0.30873755,-2.9692633,-2.856406,-0.9437868
53,0.5300000000000002,0.27013773,0.061527982,0.5783264,-2.6007588,-3.2265902,-1.061073
54,0.5400000000000003,0.3351415,0.035550855,0.72400564,-2.0760255,-3.9449677,-1.2345587
55,0.5500000000000003,0.4494165,0.03670946,0.8509033,-1.2406673,-5.3620224,-1.4767667
56,0.5600000000000003,0.3743511,-0.15848486,0.9198098,-7.2718925,5.9640303,-2.7725646
57,0.5700000000000003,0.36861908,-0.04018527,1.1809226,-4.4490843,1.3817772,-3.345098
58,0.5800000000000003,0.36861908,-0.04018527,1.1809226,-3.0276008,-1.476614,-3.4381022
59,0.5900000000000003,0.19781642,-0.021586625,0.49673632,-2.2392793,-3.4475708,-3.292869
60,0.6000000000000003,0.19781642,-0.021586625,0.49673632,-2.2392793,-3.4475708,-3.292869
61,0.6100000000000003,0.19781642,-0.021586625,0.49673632,-2.2392793,-3.4475708,-3.292869
62,0.6200000000000003,0.15037462,-0.010610376,0.0600035,-4.116163,-0.40408736,-2.4217753
63,0.6300000000000003,0.15037462,-0.010610376,0.0600035,-4.116163,-0.40408736,-2.4217753
64,0.6400000000000003,0.7333355,-0.52521354,-2.2054946,-5.989534,5.809787,-2.7563767
65,0.6500000000000004,0.5633255,-0.5311286,0.16653411,-4.7218356,12.347419,-3.1129694
66,0.6600000000000004,0.29080966,-0.75297076,0.20452413,-1.3345878,9.631665,-1.8950567
67,0.6700000000000004,0.09768862,-1.0354873,0.18415709,0.9851729,4.797583,0.08093964
68,0.6800000000000004,-0.13269067,-1.1672632,0.3969134,3.7749946,0.21517728,3.4523048
69,0.6900000000000004,-0.16763173,-1.0842097,0.38191253,5.6897516,-1.3168727,6.449668
70,0.7000000000000004,-0.14287418,-1.0481709,0.31837222,6.4342437,-1.4249959,7.67934
71,0.7100000000000004,-0.059515666,-0.99322873,0.13915445,7.2329497,-0.9952522,9.204517
72,0.7200000000000004,-0.018659625,-0.9838379,0.091224834,7.3430586,-0.74021596,9.503841
73,0.7300000000000004,0.19775544,-1.0387801,0.022928167,7.369478,0.15775596,9.895558
74,0.7400000000000004,0.47338125,-1.1543967,0.07097975,7.190342,0.7849618,9.741315
75,0.7500000000000004,0.63552487,-1.2865994,0.16872935,7.035946,1.1311697,9.321804
76,0.7600000000000005,0.8054128,-1.454719,0.14378887,6.814507,1.1406381,8.4210825
77,0.7700000000000005,0.8054128,-1.454719,0.14378887,6.814507,1.1406381,8.4210825
78,0.7800000000000005,0.8399271,-1.2501949,0.03146525,5.9469256,-0.37812558,6.287178
79,0.7900000000000005,0.5726553,-0.68772304,-0.044880666,5.2824574,-2.079996,4.851339
80,0.8000000000000005,0.27007675,-0.28611428,-0.052381106,4.2557454,-4.9965725,2.4356725
81,0.8100000000000005,0.1572043,-0.14793546,-0.05713748,4.0057487,-5.5019107,1.8478674
82,0.8200000000000005,0.095493376,-0.047990605,-0.086285524,3.710701,-5.7097573,1.2754866
83,0.8300000000000005,0.0617719,-0.015549688,-0.09433477,3.3765576,-5.689446,0.79000145
84,0.8400000000000005,-0.027684543,-0.053173836,-0.39593774,3.0992248,-5.5964417,0.5224425
85,0.8500000000000005,-0.4928946,-0.46612477,-2.254095,-0.17088956,-4.247499,0.56230146
86,0.8600000000000005,0.036465544,-0.278065,-0.7365674,-2.5175283,-3.5091155,0.55924714
87,0.8700000000000006,0.2321477,-0.3568501,-0.16641214,-3.7604864,-3.4532213,0.009162978
88,0.8800000000000006,0.28519958,-0.6859547,-0.15500905,-4.739398,-3.4590244,-0.57436603
89,0.8900000000000006,0.30026144,-1.2666593,0.049637042,-5.842926,-3.3023374,-1.231657
90,0.9000000000000006,0.25861263,-2.5896633,0.47142997,-7.2077518,-2.0173824,-2.2536347
91,0.9100000000000006,0.25397822,-3.3115957,0.5786923,-7.465079,-0.8688031,-2.690556
92,0.9200000000000006,0.22257397,-4.6167326,1.9798715,-3.5294266,6.593527,-3.2016973
93,0.9300000000000006,0.27410138,-5.0301104,0.9582266,1.0474812,12.450197,-2.7785206
94,0.9400000000000006,0.6454645,-4.3519,-0.08976133,3.0115657,14.999033,-1.1826351
95,0.9500000000000006,1.2364136,-3.1444516,-3.512766,3.0115657,14.999033,-1.1826351
96,0.9600000000000006,1.2364136,-3.1444516,-3.512766,2.509129,7.556403,-0.40026945
97,0.9700000000000006,0.6197923,-1.9954822,-1.079941,-1.1988231,-6.7648745,-0.20738874
98,0.9800000000000006,0.6197923,-1.9954822,-1.079941,-2.201253,-7.3036575,0.2501493
99,0.9900000000000007,0.430269,-1.6075938,-0.7274814,-2.201253,-7.3036575,0.2501493
100,1.0000000000000007,0.34794715,-0.9224319,-0.89316183,-1.7130189,-4.1404448,1.0256428
101,1.0100000000000007,0.34873986,-0.7407749,-0.78474087,-2.1022928,-0.5225952,1.0621419
102,1.0200000000000007,0.27843088,-0.6683317,-0.56850874,-2.8728993,0.6256787,0.8359691
103,1.0300000000000007,0.19745055,-0.5950347,-0.35776478,-3.2812626,0.93416566,0.7049385
104,1.0400000000000007,0.15592372,-0.4621611,-0.18488884,-3.8183658,1.1623238,0.50243664
105,1.0500000000000007,0.131715,-0.37886357,-0.14763056,-3.8183658,1.1623238,0.50243664
106,1.0600000000000007,0.131715,-0.37886357,-0.14763056,-4.1548,1.2331842,0.34956762
107,1.0700000000000007,0.131715,-0.37886357,-0.14763056,-4.1548,1.2331842,0.34956762
108,1.0800000000000007,0.131715,-0.37886357,-0.14763056,-4.1548,1.2331842,0.34956762
109,1.0900000000000007,0.131715,-0.37886357,-0.14763056,-4.1548,1.2331842,0.34956762
110,1.1000000000000008,0.38862023,-0.079516836,0.90529674,-3.2840116,0.09514226,-1.0557278
111,1.1100000000000008,0.38862023,-0.079516836,0.90529674,-1.3257303,-1.7965547,-1.8614591
112,1.1200000000000008,0.38862023,-0.079516836,0.90529674,-0.4082107,-2.93872,-2.23989
113,1.1300000000000008,0.38862023,-0.079516836,0.90529674,-0.4082107,-2.93872,-2.23989
114,1.1400000000000008,0.38862023,-0.079516836,0.90529674,-0.4082107,-2.93872,-2.23989
115,1.1500000000000008,0.20293866,0.017927876,0.3501424,0.61407226,-6.0973516,-3.0132456
116,1.1600000000000008,-0.17153439,-0.1211656,-0.79516834,-1.7180585,-5.2393913,-2.3060162
117,1.1700000000000008,-0.17153439,-0.1211656,-0.79516834,-1.7180585,-5.2393913,-2.3060162
118,1.1800000000000008,-0.17153439,-0.1211656,-0.79516834,-1.7180585,-5.2393913,-2.3060162
119,1.1900000000000008,-0.17153439,-0.1211656,-0.79516834,-1.7180585,-5.2393913,-2.3060162
120,1.2000000000000008,-0.17153439,-0.1211656,-0.79516834,-1.7180585,-5.2393913,-2.3060162
121,1.2100000000000009,0.8369391,-0.96566606,0.16000934,-4.8974595,1.5885551,-1.9382755
122,1.2200000000000009,0.8369391,-0.96566606,0.16000934,-4.8974595,1.5885551,-1.9382755
123,1.2300000000000009,0.80833983,-1.6734512,-0.2711134,-2.9665143,11.80436,-3.8398988
124,1.2400000000000009,0.35849655,-1.9388937,-0.5608864,-1.1456778,13.354125,-3.6683986
125,1.2500000000000009,0.35849655,-1.9388937,-0.5608864,-1.1456778,13.354125,-3.6683986
126,1.260000000000001,-0.19360885,-2.2294593,-0.45466065,1.5815301,8.352208,-1.389413
127,1.270000000000001,-0.28135788,-2.0756698,0.10201815,3.261257,4.019188,1.2901474
128,1.280000000000001,-0.026891813,-1.5791165,0.19397473,4.719545,0.8026769,4.5349107
129,1.290000000000001,0.059027832,-1.4408158,0.14976484,5.5998015,-0.977079,7.1303244
130,1.300000000000001,0.059027832,-1.4408158,0.14976484,5.5998015,-0.977079,7.1303244
131,1.310000000000001,0.46027076,-1.2869045,0.096347086,5.5998015,-0.977079,7.1303244
132,1.320000000000001,0.46027076,-1.2869045,0.096347086,5.9739566,-1.1629347,7.7095776
133,1.330000000000001,0.57094795,-1.0792093,-0.07860215,5.6219454,-1.0803152,6.6329274
134,1.340000000000001,0.44026962,-0.6524771,-0.038355898,5.1250067,-1.1600331,5.2148037
135,1.350000000000001,0.39648655,-0.5533859,-0.05366167,4.9576297,-1.1606439,4.7181706
136,1.360000000000001,0.25592956,-0.29215118,-0.0962861,4.62593,-1.2055426,3.912592
137,1.370000000000001,0.18927933,-0.18738899,-0.123604774,4.3918157,-1.1711814,3.4717
138,1.380000000000001,0.18927933,-0.18738899,-0.123604774,4.3918157,-1.1711814,3.4717
139,1.390000000000001,0.18885247,-0.020245085,-0.72309095,4.1534257,-1.0351112,3.207806
140,1.400000000000001,0.21141478,0.015000875,-1.0059124,2.5824327,0.9755518,2.770121
141,1.410000000000001,0.14897211,0.086285524,-1.2944658,0.05971208,4.1436515,2.4769058
142,1.420000000000001,0.12561709,0.020793896,-0.7086389,-1.4654657,5.754656,2.2759311
143,1.430000000000001,0.046953958,0.0045124586,-0.041587792,-2.0772474,6.0408463,1.9845484
144,1.440000000000001,0.07439458,-0.0190255,0.011098208,-2.1297817,5.7361774,1.7261524
145,1.450000000000001,0.13683724,-0.12830016,0.020367041,-2.1380284,5.4293704,1.4582881
146,1.460000000000001,0.17000991,-0.27257687,0.10482319,-2.0821342,4.615698,0.72295904
147,1.470000000000001,0.17000991,-0.27257687,0.10482319,-1.730123,3.6975672,-0.029474247
148,1.480000000000001,-0.17232713,-1.7229664,0.4486847,-0.7499898,2.5274549,-0.6252206
149,1.490000000000001,-0.17232713,-1.7229664,0.4486847,2.051591,-0.7111999,-1.2072225
150,1.500000000000001,-0.5899125,-2.5481975,0.2874558,2.8687758,-2.0926716,-1.2844969
151,1.5100000000000011,-1.7813233,-5.52142,0.05866196,0.3222314,0.40591997,1.2411255
152,1.5200000000000011,-1.7813233,-5.52142,0.05866196,0.3222314,0.40591997,1.2411255
153,1.5300000000000011,-1.5020999,-5.791374,0.42782986,-0.43371433,-0.41340306,2.5402832
154,1.5400000000000011,-0.9024917,-4.806378,0.21952501,0.81183994,-2.4652994,2.1357377
155,1.5500000000000012,-0.18476687,-2.6686313,-1.8306557,0.81183994,-2.4652994,2.1357377
156,1.5600000000000012,-0.18476687,-2.6686313,-1.8306557,0.81183994,-2.4652994,2.1357377
157,1.5700000000000012,-0.18476687,-2.6686313,-1.8306557,-2.4521658,4.399146,-0.42470407
158,1.5800000000000012,-0.28032124,-1.331968,-0.65369666,-3.6092973,6.839858,-0.7699956
159,1.5900000000000012,-0.24714857,-1.1800079,-0.2994687,-3.5369098,6.966918,-0.95478237
160,1.6000000000000012,-0.11927526,-0.9076749,0.016159479,-2.9513955,6.224106,-1.4410311
161,1.6100000000000012,-0.073175006,-0.6943088,0.20702426,-2.5767822,5.453194,-1.8501581
162,1.6200000000000012,0.010854292,-0.5411291,0.24007498,-2.097406,4.44939,-2.4889705
163,1.6300000000000012,0.053600688,-0.34691048,0.23714797,-2.097406,4.44939,-2.4889705
164,1.6400000000000012,0.08159013,-0.25471,0.21482961,-1.9776763,4.133725,-2.667954
165,1.6500000000000012,0.08939546,-0.13336144,0.18665724,-1.4929546,2.7763824,-3.1230485
166,1.6600000000000013,0.07762648,-0.07341892,0.21013421,-1.4929546,2.7763824,-3.1230485
167,1.6700000000000013,0.066894144,-0.041404855,0.18964522,-1.2443326,1.9220876,-3.2548428
168,1.6800000000000013,0.055186145,-0.0453685,0.19251123,-1.1334605,0.788627,-3.3425019
169,1.6900000000000013,0.027257688,-0.039331563,0.15610667,-1.1330023,-0.0364992,-3.3770158
170,1.7000000000000013,0.027257688,-0.039331563,0.15610667,-1.5839735,-1.8017471,-3.3261611
171,1.7100000000000013,-0.14939895,-0.022379354,0.1662902,-2.903137,-5.3685894,-2.8780916
172,1.7200000000000013,-0.14939895,-0.022379354,0.1662902,-2.903137,-5.3685894,-2.8780916
173,1.7300000000000013,-0.050307814,-0.07110171,0.4305739,-3.568064,-8.616101,-2.2389739
174,1.7400000000000013,-0.091956586,-0.131715,0.2924561,-3.9594758,-9.103572,-1.7035505
175,1.7500000000000013,-0.1539724,-0.3128841,-0.13720313,-4.777119,-7.360926,-0.946383
176,1.7600000000000013,-0.1539724,-0.3128841,-0.13720313,-4.777119,-7.360926,-0.946383
177,1.7700000000000014,0.35758185,-0.7921194,0.1823277,-6.138127,-1.6685784,-0.44501534
178,1.7800000000000014,0.5875953,-0.87017274,0.62509745,-5.869346,0.8761335,-0.91996306
179,1.7900000000000014,0.5875953,-0.87017274,0.62509745,-5.869346,0.8761335,-0.91996306
180,1.8000000000000014,0.5875953,-0.87017274,0.62509745,-5.869346,0.8761335,-0.91996306
181,1.8100000000000014,0.5875953,-0.87017274,0.62509745,-5.869346,0.8761335,-0.91996306
182,1.8200000000000014,-0.54960525,-1.3878858,-0.6946747,4.423733,5.824142,-1.2631166
183,1.8300000000000014,-0.90346736,-1.051037,-0.4484408,6.1946316,2.8273897,-0.003970624
184,1.8400000000000014,-0.90346736,-1.051037,-0.4484408,7.016856,0.3266602,1.5344934
185,1.8500000000000014,-0.90346736,-1.051037,-0.4484408,7.016856,0.3266602,1.5344934
186,1.8600000000000014,-0.7587028,-0.8687092,-0.2660521,7.0863423,-0.47647488,2.855795
187,1.8700000000000014,-0.54783684,-0.90334535,0.073723815,6.815576,0.37094793,4.87165
188,1.8800000000000014,-0.43301308,-1.2566587,0.15769213,6.542367,2.0486894,6.449668
189,1.8900000000000015,-0.43301308,-1.2566587,0.15769213,6.542367,2.0486894,6.449668
190,1.9000000000000015,0.029209021,-1.5160031,0.0066467295,4.3401976,3.0462322,6.9479814
191,1.9100000000000015,0.029209021,-1.5160031,0.0066467295,4.3401976,3.0462322,6.9479814
192,1.9200000000000015,0.28257746,-1.3576401,-0.031282313,1.6400205,1.9172006,4.5390344
193,1.9300000000000015,0.3825833,-0.793156,0.1167751,0.37766743,0.11438452,2.6203065
194,1.9400000000000015,0.33995885,-0.62034106,0.19531627,-0.087964594,-1.3784174,1.459968
195,1.9500000000000015,0.1753151,-0.36898494,0.2667229,-0.19440787,-2.531273,0.65057147
196,1.9600000000000015,0.09799352,-0.19604802,0.2420873,-0.10277808,-3.0596714,0.33765575
197,1.9700000000000015,0.07335794,-0.099152125,0.112445585,-0.01160644,-3.3169982,0.16920967
198,1.9800000000000015,0.07335794,-0.099152125,0.112445585,-0.01160644,-3.3169982,0.16920967
199,1.9900000000000015,0.07335794,-0.099152125,0.112445585,-0.01160644,-3.3169982,0.16920967
200,2.0000000000000013,0.015244792,0.020549979,0.00219525,0.09437868,-3.445891,0.022449298
201,2.010000000000001,0.019208437,0.019086478,0.00030489583,0.19608775,-3.4379497,-0.0062613687
202,2.020000000000001,0.019208437,0.019086478,0.00030489583,0.2930626,-3.4203873,-0.06078109
203,2.0300000000000007,-0.0512225,-0.24312395,-0.01762298,0.2930626,-3.4203873,-0.06078109
204,2.0400000000000005,-0.0512225,-0.24312395,-0.01762298,0.2930626,-3.4203873,-0.06078109
205,2.0500000000000003,-0.0512225,-0.24312395,-0.01762298,0.2930626,-3.4203873,-0.06078109
206,2.06,-1.0283527,-2.584724,-1.2534268,0.31719178,-5.718615,-0.111177474
207,2.07,-1.4681954,-3.7151556,0.08787098,-1.1965322,-2.9362764,0.9773844
208,2.0799999999999996,-1.7278447,-4.8457704,0.4607586,-1.1965322,-2.9362764,0.9773844
209,2.0899999999999994,-1.4032526,-5.3206153,0.69693094,-0.043218717,3.7442985,1.1432343
210,2.099999999999999,-0.8995037,-4.3867803,0.35666716,1.6565138,4.7516155,0.7386888
211,2.109999999999999,-0.8995037,-4.3867803,0.35666716,1.6565138,4.7516155,0.7386888
212,2.1199999999999988,-0.3764244,-2.0616448,-0.50191957,2.2446244,4.7623053,0.50869805
213,2.1299999999999986,-0.20586567,-1.644852,-0.9458478,2.286316,4.1372375,0.26557365
214,2.1399999999999983,0.16818054,-0.98713076,-2.002312,1.1835514,4.0477457,-0.18753563
215,2.149999999999998,0.1606801,-0.825475,-1.8820611,-0.27488935,4.6602907,-0.6432411
216,2.159999999999998,-0.0018293752,-0.73931146,-1.1756784,-0.27488935,4.6602907,-0.6432411
217,2.1699999999999977,0.008171208,-0.65552604,-0.60698664,-1.8788688,5.055979,-1.0942124
218,2.1799999999999975,-0.0010366458,-0.5549104,-0.3714851,-3.251483,3.9031234,-2.1868975
219,2.1899999999999973,0.075675145,-0.35959417,0.03433127,-3.274085,3.422678,-2.503173
220,2.199999999999997,0.075675145,-0.35959417,0.03433127,-3.274085,3.422678,-2.503173
221,2.209999999999997,0.10500612,-0.263491,0.1674488,-3.181997,2.9969049,-2.8238773
222,2.2199999999999966,0.09012721,-0.1923283,0.19806033,-3.029128,2.5970936,-3.0708196
223,2.2299999999999964,0.07713865,-0.12482436,0.29166338,-2.5051584,1.9017762,-3.361897
224,2.239999999999996,0.045978293,-0.12537317,0.33422682,-2.0963368,1.0838276,-3.4892623
225,2.249999999999996,0.0033538544,-0.13220283,0.41087765,-2.0963368,1.0838276,-3.4892623
226,2.259999999999996,0.0033538544,-0.13220283,0.41087765,-1.6539177,-0.16829337,-3.5584428
227,2.2699999999999956,-0.06872352,-0.12781233,0.4042919,-1.2977833,-1.7490599,-3.5446982
228,2.2799999999999954,-0.134642,-0.12171442,0.45905116,-1.0743593,-5.029406,-3.304781
229,2.289999999999995,-0.14720371,-0.12134854,0.45063603,-1.2945762,-7.5800743,-2.945745
230,2.299999999999995,-0.21659799,-0.14470357,0.28263843,-1.509448,-8.209571,-2.6583328
231,2.3099999999999947,-0.42612243,-0.30721304,-0.42069528,-2.296548,-7.7656245,-2.0839667
232,2.3199999999999945,-0.42612243,-0.30721304,-0.42069528,-2.296548,-7.7656245,-2.0839667
233,2.3299999999999943,0.09415183,-0.82803607,0.4237442,-5.2076263,-2.9152017,-0.6273586
234,2.339999999999994,0.29312685,-0.863526,0.82773125,-4.9512157,-1.64674,-0.6603453
235,2.349999999999994,0.45734373,-0.90462595,1.2056192,-4.0582833,-0.61743206,-0.95004815
236,2.3599999999999937,0.3381295,-0.88645416,1.0268282,-2.5764768,0.93279123,-1.4340062
237,2.3699999999999934,0.07091877,-0.88858837,0.5914369,-2.5764768,0.93279123,-1.4340062
238,2.3799999999999932,-0.2037314,-1.0354873,-0.1419595,-0.8483391,5.1680727,-1.485777
239,2.389999999999993,-0.54606843,-1.4619756,-0.71126103,0.6693556,7.563886,-0.66156703
240,2.399999999999993,-0.97963035,-1.6714389,-0.015183813,4.145026,5.2316027,1.0742066
241,2.4099999999999926,-0.97963035,-1.6714389,-0.015183813,6.1892867,1.9862283,3.0395126
242,2.4199999999999924,-0.9975582,-1.7009529,0.090249166,7.0021954,0.50594914,4.616614
243,2.429999999999992,-0.9975582,-1.7009529,0.090249166,7.0021954,0.50594914,4.616614
244,2.439999999999992,-0.3420931,-2.133783,0.01683025,6.782131,1.1346822,8.730486
245,2.4499999999999917,-0.072565205,-2.0326185,-0.08939546,5.869346,1.664455,8.48278
246,2.4599999999999915,-0.072565205,-2.0326185,-0.08939546,5.869346,1.664455,8.48278
247,2.4699999999999913,0.327824,-1.334651,-0.23525764,2.9703321,1.725847,5.6187387
248,2.479999999999991,0.327824,-1.334651,-0.23525764,2.9703321,1.725847,5.6187387
249,2.489999999999991,0.327824,-1.334651,-0.23525764,2.9703321,1.725847,5.6187387
250,2.4999999999999907,0.327824,-1.334651,-0.23525764,2.9703321,1.725847,5.6187387
251,2.5099999999999905,0.18690115,-0.34959355,0.06890646,0.35476,-0.07437284,0.7111999
252,2.5199999999999902,0.18690115,-0.34959355,0.06890646,0.35476,-0.07437284,0.7111999
253,2.52999999999999,0.18690115,-0.34959355,0.06890646,0.35476,-0.07437284,0.7111999
254,2.53999999999999,0.03609967,0.03140427,0.008171208,0.3109304,-0.9851729,-0.021838432
255,2.5499999999999896,0.03609967,0.03140427,0.008171208,0.3109304,-0.9851729,-0.021838432
256,2.5599999999999894,0.03609967,0.03140427,0.008171208,0.3109304,-0.9851729,-0.021838432
257,2.569999999999989,0.03609967,0.03140427,0.008171208,0.3109304,-0.9851729,-0.021838432
258,2.579999999999989,-0.1334834,-0.15403338,-0.6272317,-1.4811954,-8.368701,0.84757555
259,2.5899999999999888,-0.1334834,-0.15403338,-0.6272317,-1.4811954,-8.368701,0.84757555
260,2.5999999999999885,-0.1334834,-0.15403338,-0.6272317,-1.4811954,-8.368701,0.84757555
261,2.6099999999999883,-0.007561417,-0.5022244,0.55856913,-0.13072516,-4.006665,-0.13454308
262,2.619999999999988,-0.007561417,-0.5022244,0.55856913,-0.13072516,-4.006665,-0.13454308
263,2.629999999999988,-0.36154547,-1.3127595,0.60790133,0.28848112,0.88056225,-0.28893927
264,2.6399999999999877,-1.4597193,-4.156035,0.88084406,0.06337727,4.916091,0.022143865
265,2.6499999999999875,-1.8304727,-5.3228106,0.5225915,-0.68707067,9.533468,0.5830709
266,2.6599999999999873,-1.8764509,-5.7272243,0.9345057,0.0053450707,11.502287,0.8865182
267,2.669999999999987,-1.8764509,-5.7272243,0.9345057,3.4093916,8.962004,1.1189524
268,2.679999999999987,-0.87108743,-3.6784463,0.07000408,5.665622,5.6370645,1.3060299
269,2.6899999999999866,-0.87108743,-3.6784463,0.07000408,5.786268,4.5341473,1.1705705
270,2.6999999999999864,-0.199036,-1.6429008,-1.0983567,5.5779634,2.4329236,0.8060367
271,2.709999999999986,0.58143634,-0.5041148,-4.7135677,4.039346,3.9923098,0.37400225
272,2.719999999999986,0.48405263,-0.47636923,-2.90645,0.05100725,6.6243753,-0.30925053
273,2.7299999999999858,0.32776302,-0.49216285,-1.7777257,-2.123215,7.504174,-1.0384709
274,2.7399999999999856,0.20001167,-0.4922848,-1.1294562,-3.1047225,7.4362154,-1.5373951
275,2.7499999999999853,0.2089756,-0.35227665,0.23245259,-3.5831828,5.464495,-3.0114129
276,2.759999999999985,0.2089756,-0.35227665,0.23245259,-3.5831828,5.464495,-3.0114129
277,2.769999999999985,0.2089756,-0.35227665,0.23245259,-3.1987958,4.8827987,-3.4568865
278,2.7799999999999847,0.16988796,-0.17537609,0.30879852,-2.7907379,4.329355,-3.804316
279,2.7899999999999845,0.16988796,-0.17537609,0.30879852,-2.4061983,3.627165,-4.10364
280,2.7999999999999843,0.12476338,-0.12287302,0.5041148,-1.5543466,1.287093,-4.4727554
281,2.809999999999984,0.12476338,-0.12287302,0.5041148,-1.5543466,1.287093,-4.4727554
282,2.819999999999984,0.10811607,-0.1378739,0.56942344,-1.1241448,-0.41065416,-4.590194
283,2.8299999999999836,0.024574606,-0.14775252,0.5462514,-0.75334954,-2.8641944,-4.663498
284,2.8399999999999834,0.0010366458,-0.13970327,0.5055173,-0.68279463,-4.277126,-4.619363
285,2.849999999999983,-0.06219875,-0.050978586,0.4852722,-1.050841,-7.985536,-4.0668354
286,2.859999999999983,-0.041953668,-0.04018527,0.45270932,-1.050841,-7.985536,-4.0668354
287,2.869999999999983,-0.00085370836,-0.07976075,0.5139934,-1.6869044,-9.499413,-3.3012686
288,2.8799999999999826,0.025123417,-0.10866488,0.5638134,-1.8101465,-9.573174,-3.090062
289,2.8899999999999824,0.11281146,-0.22586684,0.78541166,-1.8264871,-8.68742,-2.4992025
290,2.899999999999982,-0.03664848,-0.7086999,-0.07994369,-1.8264871,-8.68742,-2.4992025
291,2.909999999999982,-0.36611894,-1.3417246,-1.2387308,-2.586098,-1.2469287,-1.958434
292,2.9199999999999817,0.269345,-1.2088511,0.1855596,-3.8547125,6.4078236,-2.0199788
293,2.9299999999999815,0.5139934,-1.1051865,1.018596,-2.6968174,9.151831,-2.7334692
294,2.9399999999999813,0.0048783333,-1.5283818,0.75162923,-1.0546589,9.446115,-3.0130928
295,2.949999999999981,0.0048783333,-1.5283818,0.75162923,-0.18997909,9.720241,-2.9426906
296,2.959999999999981,-1.1848252,-3.0929854,-0.49685827,1.4906639,10.795974,-2.460565
297,2.9699999999999807,-1.1848252,-3.0929854,-0.49685827,6.416223,8.659626,2.4152086
298,2.9799999999999804,-0.85791594,-2.9291344,-0.7777283,4.7245846,4.276362,8.3192215
299,2.9899999999999802,-0.85791594,-2.9291344,-0.7777283,3.3040173,2.8938215,9.61395
300,2.99999999999998,-0.85791594,-2.9291344,-0.7777283,3.3040173,2.8938215,9.61395
301,3.00999999999998,0.27684543,-1.6252778,-0.33160472,0.20265454,-0.83276206,8.81448
302,3.0199999999999796,0.27684543,-1.6252778,-0.33160472,0.20265454,-0.83276206,8.81448
303,3.0299999999999794,0.38983983,-0.94194525,-0.08451713,-1.0563387,-3.163671,6.384153
304,3.039999999999979,0.39593774,-0.74516547,0.01689123,-1.2554808,-3.6838229,5.5298576
305,3.049999999999979,0.39593774,-0.74516547,0.01689123,-1.2554808,-3.6838229,5.5298576
306,3.0599999999999787,0.251722,-0.23275748,0.05256404,-1.2395983,-4.4188466,3.7737727
307,3.0699999999999785,0.17385161,-0.07097975,0.036587503,-1.0180069,-4.6111164,3.2291863
308,3.0799999999999783,0.12421457,0.020306062,0.026221042,-0.36957347,-4.893183,2.8918362
309,3.089999999999978,0.14159364,0.06085721,0.019086478,-0.36957347,-4.893183,2.8918362
310,3.099999999999978,0.10872585,0.11226265,0.010793312,0.06169739,-4.9797735,2.7725646
311,3.1099999999999777,0.10201815,0.5961933,-2.9673073,0.5662721,-4.9964194,2.6021333
312,3.1199999999999775,0.10201815,0.5961933,-2.9673073,0.5662721,-4.9964194,2.6021333
313,3.1299999999999772,0.10201815,0.5961933,-2.9673073,0.5662721,-4.9964194,2.6021333
314,3.139999999999977,0.10201815,0.5961933,-2.9673073,0.5662721,-4.9964194,2.6021333
315,3.149999999999977,0.10659158,0.06512575,0.052807957,0.505491,-3.249345,1.5082263
316,3.1599999999999766,0.08549279,-0.09988388,-0.13104422,1.0509937,-2.3031147,1.0380127
317,3.1699999999999764,0.21958598,-0.12561709,0.07915096,1.9338466,-2.738356,-0.6258314
318,3.179999999999976,0.21958598,-0.12561709,0.07915096,1.9338466,-2.738356,-0.6258314
319,3.189999999999976,-0.21623214,-1.0967103,0.07799236,1.8387043,-3.1479414,-1.3991868
320,3.1999999999999758,-0.21623214,-1.0967103,0.07799236,1.8387043,-3.1479414,-1.3991868
321,3.2099999999999755,-0.21623214,-1.0967103,0.07799236,1.8387043,-3.1479414,-1.3991868
322,3.2199999999999753,-3.2846427,-5.069503,0.8377318,-1.4266758,6.1233134,-0.21365012
323,3.229999999999975,-3.2846427,-5.069503,0.8377318,-1.4266758,6.1233134,-0.21365012
324,3.239999999999975,-3.2846427,-5.069503,0.8377318,-1.4266758,6.1233134,-0.21365012
325,3.2499999999999747,-1.6983918,-3.9476085,0.3925229,3.8116465,-1.8241963,1.1145236
326,3.2599999999999745,-1.0167667,-2.7222931,-1.3072103,6.0483294,-5.4423513,0.44012842
327,3.2699999999999743,0.07854117,-1.3509934,-3.722839,6.0483294,-5.4423513,0.44012842
328,3.279999999999974,0.07854117,-1.3509934,-3.722839,6.0483294,-5.4423513,0.44012842
329,3.289999999999974,0.04835648,-1.1246997,-2.274218,3.4510832,6.19173,-0.29458976
330,3.2999999999999736,-0.027989438,-0.92907864,-1.3251992,-0.41233405,11.185248,-1.8270979
331,3.3099999999999734,-0.08030956,-0.5494833,-0.19738956,-1.9286543,4.6848783,-3.1775682
332,3.319999999999973,0.1478135,-0.17257105,0.17110755,-1.9286543,4.6848783,-3.1775682
333,3.329999999999973,0.21909817,-0.029452939,0.12427554,-2.0664043,2.7957776,-3.9353466
334,3.3399999999999728,0.24281906,0.004756375,0.11872645,-2.1114557,1.9550742,-4.3603563
335,3.3499999999999726,0.24281906,0.004756375,0.11872645,-2.1114557,1.9550742,-4.3603563
336,3.3599999999999723,0.010549396,-0.026099084,0.06219875,-2.4098635,0.31688634,-4.7934594
337,3.369999999999972,0.010549396,-0.026099084,0.06219875,-2.755766,-0.88025683,-4.8273625
338,3.379999999999972,-0.13061738,-0.07939488,0.13982524,-2.755766,-0.88025683,-4.8273625
339,3.3899999999999717,-0.17159538,-0.12598296,0.2570272,-3.4857497,-3.0488284,-4.7386346
340,3.3999999999999715,-0.17159538,-0.12598296,0.2570272,-4.0291142,-4.515516,-4.5636215
341,3.4099999999999713,-0.20147517,-0.20915854,0.6675999,-4.778646,-7.443393,-3.7108536
342,3.419999999999971,-0.1764737,-0.2367821,0.81827945,-4.8004847,-8.336172,-3.200934
343,3.429999999999971,-0.13244675,-0.29166338,1.0854292,-4.2803326,-8.25844,-2.4026856
344,3.4399999999999706,-0.110067405,-0.33447072,1.2114122,-3.4121406,-7.0631294,-1.8112154
345,3.4499999999999704,-0.12860507,-0.3942913,1.1525062,-3.4121406,-7.0631294,-1.8112154
346,3.45999999999997,-0.16135088,-0.46466127,1.1530551,-1.6226108,-4.5178065,-0.9431759
347,3.46999999999997,-0.17366867,-0.547349,1.2168393,-0.7554876,-3.433979,-0.6533204
348,3.47999999999997,-0.17366867,-0.547349,1.2168393,-0.7554876,-3.433979,-0.6533204
349,3.4899999999999696,-0.06860156,-1.4039844,-1.0220108,1.2803736,12.312141,-0.7493789
350,3.4999999999999694,-0.07329696,-1.2581831,-0.23733091,1.2803736,12.312141,-0.7493789
351,3.509999999999969,-0.67979574,-2.151345,-0.8235237,3.006526,12.178209,-0.39660427
352,3.519999999999969,-1.217754,-2.0934148,-0.57911915,6.0747495,5.391344,0.99265605
353,3.5299999999999687,-1.6661338,-2.0710354,-0.3514839,7.3484035,-0.5804747,3.212693
354,3.5399999999999685,-1.461,-2.2905605,-0.50655395,5.73633,-1.9604193,7.689419
355,3.5499999999999683,-1.461,-2.2905605,-0.50655395,5.73633,-1.9604193,7.689419
356,3.559999999999968,-0.39374247,-1.8173622,-0.27654052,3.926489,-0.72586066,8.2808895
357,3.569999999999968,-0.39374247,-1.8173622,-0.27654052,2.742785,-0.122020334,7.324274
358,3.5799999999999677,0.2063535,-1.0315237,-0.15738723,-0.38331795,-0.3764457,2.4608707
359,3.5899999999999674,0.048173543,-0.6899793,-0.04085604,-1.0228939,-0.680962,0.80771655
360,3.5999999999999672,-0.04494165,-0.47636923,0.029148044,-1.3223705,-0.7841983,-0.0010690142
361,3.609999999999967,-0.04494165,-0.47636923,0.029148044,-1.3223705,-0.7841983,-0.0010690142
362,3.619999999999967,-0.0037807084,-0.14561825,0.05329579,-1.4277447,-0.7478518,-0.4558582
363,3.6299999999999666,0.052381106,-0.015915563,0.11756783,-1.1644619,-0.8622363,-0.50625455
364,3.6399999999999664,0.070613876,0.032440916,0.11518965,-0.9596693,-1.0195341,-0.53130007
365,3.649999999999966,0.06799178,0.08549279,0.10134738,-0.6056729,-1.323745,-0.5656612
366,3.659999999999966,0.046466127,0.117506854,0.093907915,-0.29352075,-1.6232216,-0.5551238
367,3.6699999999999657,0.09610317,0.18458393,0.062076796,0.37140608,-2.5576928,-0.5311473
368,3.6799999999999655,0.19165753,0.2891632,-0.007622396,2.6091583,-9.226662,-0.75396043
369,3.6899999999999653,0.0070126047,0.24239218,-0.38361996,2.6091583,-9.226662,-0.75396043
370,3.699999999999965,-0.6513185,-0.008781,-2.18092,2.4932466,-11.516337,-0.97158116
371,3.709999999999965,-0.6635143,-0.16787565,-2.6834493,-0.2519819,-9.77644,-0.52015173
372,3.7199999999999647,-0.06658925,-0.028294332,-0.4663077,-2.0494528,-7.358483,-0.28328875
373,3.7299999999999645,0.09598121,-0.058174126,0.36654577,-1.2583824,-5.66043,-0.98868537
374,3.7399999999999642,0.06982114,-0.15000875,0.50679785,-0.67179906,-4.380973,-1.5836681
375,3.749999999999964,-0.5483247,-0.9796913,0.5653988,-0.67179906,-4.380973,-1.5836681
376,3.759999999999964,-1.7048556,-2.8026025,1.0542688,-0.010231993,0.7244862,-1.353372
377,3.7699999999999636,-2.3087323,-3.7894893,1.144152,0.1910481,2.5966353,-0.75533485
378,3.7799999999999634,-3.1101816,-5.851378,1.0615864,0.8959866,9.046304,2.6247354
379,3.789999999999963,-2.6122866,-6.285001,1.0504881,3.3153183,8.939708,3.588528
380,3.799999999999963,-2.6122866,-6.285001,1.0504881,3.3153183,8.939708,3.588528
381,3.8099999999999627,-1.8351681,-5.904003,0.4619782,3.3153183,8.939708,3.588528
382,3.8199999999999625,-0.4604537,-3.2030528,-1.5286257,6.5796294,4.7351217,0.783282
383,3.8299999999999623,0.16171674,-1.8078493,-3.181832,3.6986363,7.8958917,-0.43218717
384,3.839999999999962,0.16171674,-1.8078493,-3.181832,3.6986363,7.8958917,-0.43218717
385,3.849999999999962,0.16171674,-1.8078493,-3.181832,3.6986363,7.8958917,-0.43218717
386,3.8599999999999617,0.16171674,-1.8078493,-3.181832,3.6986363,7.8958917,-0.43218717
387,3.8699999999999615,-0.13744704,-1.0679282,-0.81388897,-0.9295842,8.287303,-1.5224289
388,3.8799999999999613,-0.053173836,-0.42100018,-0.15531394,-2.4109323,4.4672575,-2.322204
389,3.889999999999961,0.058357064,-0.14073992,0.08067544,-2.4109323,4.4672575,-2.322204
390,3.899999999999961,0.08512692,-0.04994194,0.07982173,-2.8341093,3.0419562,-2.6676486
391,3.9099999999999606,0.08512692,-0.04994194,0.07982173,-2.8341093,3.0419562,-2.6676486
392,3.9199999999999604,0.12647079,0.05232013,0.42203683,-2.6612344,2.2392793,-3.1134274
393,3.92999999999996,0.12647079,0.05232013,0.42203683,-2.6612344,2.2392793,-3.1134274
394,3.93999999999996,0.12140953,0.039819397,0.34758124,-2.3661866,1.7745636,-3.2931745
395,3.9499999999999598,0.12140953,0.039819397,0.34758124,-2.3661866,1.7745636,-3.2931745
396,3.9599999999999596,0.12140953,0.039819397,0.34758124,-2.3661866,1.7745636,-3.2931745
397,3.9699999999999593,0.12140953,0.039819397,0.34758124,-2.3661866,1.7745636,-3.2931745
398,3.979999999999959,0.041221917,-0.031221334,0.37057042,-2.4051292,-5.642715,-3.6887097
399,3.989999999999959,0.015671646,-0.09049308,0.47386914,-2.5471554,-6.632164,-3.6500726
400,3.9999999999999587,0.015671646,-0.09049308,0.47386914,-3.1375566,-9.440006,-3.1137328
401,4.009999999999959,0.044270877,-0.11317733,0.6503428,-3.3741143,-9.722074,-2.3151793
402,4.019999999999959,0.105493955,-0.14092286,0.6873572,-3.1439707,-8.453917,-1.6497943
403,4.0299999999999585,0.13537374,-0.15196009,0.68241787,-3.013551,-7.892532,-1.4555391
404,4.039999999999958,0.09287128,-0.25416118,0.64961106,-2.250275,-5.595831,-0.9120218
405,4.049999999999958,-0.95036036,-0.84614694,-1.2097048,-2.766456,-0.7863363,-0.23044892
406,4.059999999999958,-0.883954,-1.1636045,-1.0765262,-4.1352525,5.0061936,0.4344779
407,4.069999999999958,0.22909874,-0.910236,0.5279576,-4.4629817,11.276267,0.09086621
408,4.079999999999957,0.25294158,-0.95755583,0.6091819,-3.9655845,12.014803,-0.27351493
409,4.089999999999957,-0.7455313,-1.9208438,0.17196125,7.9801908,3.599829,-0.30543262
410,4.099999999999957,-0.7455313,-1.9208438,0.17196125,7.9801908,3.599829,-0.30543262
411,4.109999999999957,-1.1626898,-1.7864457,-0.56045955,10.129062,0.11988231,2.728277
412,4.119999999999957,-1.1576285,-1.8317531,-0.705529,9.481239,0.9098838,3.945426
413,4.129999999999956,-0.93889624,-1.867609,-0.31989673,7.7460766,2.329229,6.146679
414,4.139999999999956,-0.76547146,-1.9318811,-0.17555903,6.427524,3.0243938,7.1851497
415,4.149999999999956,-0.76547146,-1.9318811,-0.17555903,6.427524,3.0243938,7.1851497
416,4.159999999999956,-0.3597771,-1.8287652,-0.10451829,2.4640777,2.3426683,6.3175683
417,4.1699999999999555,0.12897095,-1.0845754,-0.14238635,0.73364913,1.1861476,4.412738
418,4.179999999999955,0.13610551,-0.81584024,-0.08470006,-0.32284227,0.22143865,2.8686233
419,4.189999999999955,0.088114895,-0.5804607,-0.009146876,-0.95737857,-0.48624873,1.7102699
420,4.199999999999955,0.088114895,-0.5804607,-0.009146876,-1.3003794,-1.0144944,0.9285152
421,4.209999999999955,0.04914921,-0.37239978,0.06097917,-1.3003794,-1.0144944,0.9285152
422,4.2199999999999545,0.07012604,-0.14317909,0.07250423,-1.3384057,-1.2999213,0.4804455
423,4.229999999999954,0.066345334,-0.012073875,0.08256579,-1.1814134,-1.5164729,0.32085696
424,4.239999999999954,0.072870106,0.034758125,0.083053626,-1.0538952,-1.6743816,0.2855795
425,4.249999999999954,0.049454104,0.0482955,0.07774844,-0.82527894,-1.8854356,0.23900102
426,4.259999999999954,0.050185855,0.08872469,0.079211935,-0.49128836,-2.1395555,0.21395555
427,4.269999999999953,0.055917896,0.11067719,0.07561417,-0.20723604,-2.414903,0.19364429
428,4.279999999999953,-0.105493955,-0.03292875,-0.17616881,2.0137172,-8.997281,-0.0050396384
429,4.289999999999953,-0.105493955,-0.03292875,-0.17616881,2.0137172,-8.997281,-0.0050396384
430,4.299999999999953,-0.63168323,-0.49752906,-3.242872,0.025350908,-14.151152,-0.12843442
431,4.3099999999999525,-0.63168323,-0.49752906,-3.242872,0.025350908,-14.151152,-0.12843442
432,4.319999999999952,-0.17732742,-0.34752026,-1.3045883,-1.9784398,-13.084734,-0.1001819
433,4.329999999999952,-0.23416002,-1.0112785,0.60838914,-1.9549215,-9.041416,-1.2385293
434,4.339999999999952,-0.23416002,-1.0112785,0.60838914,-1.9549215,-9.041416,-1.2385293
435,4.349999999999952,-2.2530582,-3.9975502,1.2140342,-2.10046,-0.3100141,-0.37491855
436,4.3599999999999515,-2.5891144,-4.6411247,1.1747028,-2.10046,-0.3100141,-0.37491855
437,4.369999999999951,-2.3283067,-5.346897,1.2517803,-0.74174315,8.932988,2.348166
438,4.379999999999951,-1.5216131,-4.8808336,0.6727832,4.3542476,7.502036,1.885741
439,4.389999999999951,-1.5216131,-4.8808336,0.6727832,5.564677,6.6576676,1.099252
440,4.399999999999951,-0.59747386,-2.8106518,-0.81797457,6.137058,5.9165354,0.1479821
441,4.40999999999995,-0.59747386,-2.8106518,-0.81797457,6.137058,5.9165354,0.1479821
442,4.41999999999995,-0.59747386,-2.8106518,-0.81797457,6.137058,5.9165354,0.1479821
443,4.42999999999995,-0.59747386,-2.8106518,-0.81797457,3.0279064,9.707565,-0.6188065
444,4.43999999999995,-0.59747386,-2.8106518,-0.81797457,3.0279064,9.707565,-0.6188065
445,4.4499999999999496,0.10433535,-1.0199375,-2.6804001,-1.3617713,7.325954,-1.7634152
446,4.459999999999949,-0.20043853,-0.7093707,-0.42661023,-3.1713068,4.405102,-2.2887595
447,4.469999999999949,-0.13921544,-0.5283235,0.12927583,-3.6925278,2.7194192,-2.4992025
448,4.479999999999949,-0.06799178,-0.35733792,0.26916206,-3.646102,2.129018,-2.5344799
449,4.489999999999949,-0.018781584,-0.21824445,0.23726994,-3.5457673,1.8585575,-2.5902214
450,4.4999999999999485,0.00804925,-0.09012721,0.30660325,-3.5457673,1.8585575,-2.5902214
451,4.509999999999948,0.00804925,-0.09012721,0.30660325,-3.5457673,1.8585575,-2.5902214
452,4.519999999999948,0.00804925,-0.09012721,0.30660325,-3.5457673,1.8585575,-2.5902214
453,4.529999999999948,-0.10677453,-0.15915562,0.5758263,-2.5627325,-2.047315,-2.6155722
454,4.539999999999948,-0.11775078,-0.15854584,0.64778167,-2.277153,-3.6344955,-2.4433084
455,4.549999999999947,-0.11775078,-0.15854584,0.64778167,-2.277153,-3.6344955,-2.4433084
456,4.559999999999947,-0.11775078,-0.15854584,0.64778167,-2.277153,-3.6344955,-2.4433084
457,4.569999999999947,-0.13988622,-0.14287418,0.7072974,-1.8046486,-6.7369275,-1.873371
458,4.579999999999947,-0.11336028,-0.111165024,0.8183404,-1.74738,-7.0964217,-0.95279706
459,4.589999999999947,-0.07091877,-0.06744295,0.68857676,-1.7944167,-6.129269,-0.46288314
460,4.599999999999946,-0.023781875,-0.110555224,0.6822959,-1.785559,-5.3230796,-0.11255192
461,4.609999999999946,-0.023781875,-0.110555224,0.6822959,-1.6748397,-3.843564,0.2454151
462,4.619999999999946,-0.40935317,-0.9845087,-1.1704341,-3.0622675,1.3454307,0.6397286
463,4.629999999999946,0.1917185,-0.81760865,0.30520073,-4.57477,6.9931855,0.50793445
464,4.6399999999999455,0.35313037,-0.78699714,0.8732217,-3.8324158,7.407963,-0.25366178
465,4.649999999999945,-0.3059325,-1.7333329,-0.9759716,-2.7246118,6.800152,-0.7825184
466,4.659999999999945,-0.3059325,-1.7333329,-0.9759716,-1.3997977,6.4139323,-0.9940305
467,4.669999999999945,-1.2606833,-1.7924216,-0.10915271,6.0295453,-3.3628132,1.1238394
468,4.679999999999945,-1.2606833,-1.7924216,-0.10915271,6.0295453,-3.3628132,1.1238394
469,4.689999999999944,-1.4829525,-1.9589559,0.041282896,6.774648,-3.6580138,2.9294043
470,4.699999999999944,-1.519235,-2.1201236,0.005854,6.933168,-3.063642,4.546365
471,4.709999999999944,-1.1461644,-2.1384783,-0.047197875,6.6104784,-1.7730364,6.0768876
472,4.719999999999944,-0.107750185,-1.5979592,-0.047319833,5.0927835,0.91690874,5.082399
473,4.729999999999944,0.19275515,-1.1537259,-0.15665549,3.8493674,1.41904,2.5621216
474,4.739999999999943,0.1723881,-0.8756608,-0.122629106,3.8493674,1.41904,2.5621216
475,4.749999999999943,-0.0020732917,-0.66113615,-0.056344748,2.31747,1.3373368,-0.5484043
476,4.759999999999943,-0.0582351,-0.52637213,-0.02494048,2.0427334,1.3715452,-0.9430232
477,4.769999999999943,-0.05860098,-0.26068595,0.0015244792,1.7683022,1.3999504,-1.1724031
478,4.7799999999999425,-0.011159187,-0.12195834,-0.0026221042,1.6862935,1.3811663,-1.1728612
479,4.789999999999942,0.014208145,-0.050124876,0.004085604,1.6717855,1.3408492,-1.1604912
480,4.799999999999942,0.040307228,0.007622396,0.041587792,1.7114917,1.2690725,-1.1551461
481,4.809999999999942,0.025977125,0.0123177925,0.006829667,1.8602374,1.0343475,-1.1397219
482,4.819999999999942,-0.08250481,0.50191957,-4.4742856,-0.61911196,-4.2175665,-1.1704178
483,4.8299999999999415,0.010549396,0.0031099375,-0.25099024,-3.774689,-11.353084,-0.8342892
484,4.839999999999941,0.10445731,0.00060979166,0.16025324,-3.5585954,-11.721129,-0.63453627
485,4.849999999999941,0.15946053,-0.0056710625,0.37093627,-2.8842003,-11.880413,-0.54641896
486,4.859999999999941,0.15946053,-0.0056710625,0.37093627,-1.8660406,-11.985176,-0.64965516
487,4.869999999999941,0.029391957,-0.20830485,-0.40319425,-1.0735956,-11.815661,-0.84238315
488,4.87999999999994,-0.111165024,-0.67772245,-0.3052617,-1.1928672,-9.903042,-1.1800389
489,4.88999999999994,-0.111165024,-0.67772245,-0.3052617,-0.41141775,-4.3708935,-1.7079792
490,4.89999999999994,-0.3802661,-1.0109127,0.24922185,-0.41141775,-4.3708935,-1.7079792
491,4.90999999999994,-1.835046,-3.887727,0.91816336,0.27412578,3.628845,-0.60246587
492,4.9199999999999395,-1.835046,-3.887727,0.91816336,0.27412578,3.628845,-0.60246587
493,4.929999999999939,-1.9624317,-5.3231764,0.95401907,0.72494435,11.390652,1.5691601
494,4.939999999999939,-1.6599139,-5.348361,0.74004316,4.2432227,9.072876,1.452943
495,4.949999999999939,-1.2127537,-4.601793,0.17391258,5.703191,7.083441,1.1461359
496,4.959999999999939,-0.38593715,-2.8343117,-1.4456941,5.8803415,4.2007675,0.6207918
497,4.9699999999999385,0.32928753,-1.741565,-4.250126,3.5023959,3.0326405,0.10170906
498,4.979999999999938,0.0017683958,-1.2919046,-2.7911384,-1.1110111,4.5416303,-0.59788436
499,4.989999999999938,-0.31562817,-1.1947647,-1.2570856,-3.9788709,5.4826684,-0.75319684
500,4.999999999999938,-0.336666,-1.0768311,-0.7723621,-4.424955,5.513975,-0.7499898
501,5.009999999999938,-0.33056808,-0.8729168,-0.27971146,-4.8915033,5.153412,-0.7344127
502,5.019999999999937,-0.33056808,-0.8729168,-0.27971146,-4.8915033,5.153412,-0.7344127
503,5.029999999999937,-0.33056808,-0.8729168,-0.27971146,-4.8915033,5.153412,-0.7344127
504,5.039999999999937,0.0037197291,-0.49338245,0.24769738,-3.8504364,2.8510609,-1.2357804
505,5.049999999999937,0.089517415,-0.19684075,0.3170307,-3.8504364,2.8510609,-1.2357804
506,5.0599999999999365,0.11262852,-0.08409027,0.32660443,-3.4857497,2.5894578,-1.455081
507,5.069999999999936,0.12738548,-0.0629305,0.34892282,-2.9196305,2.000431,-1.7745636
508,5.079999999999936,0.16586334,-0.04634417,0.43923298,-2.2237022,0.96684694,-2.0998492
509,5.089999999999936,0.17440042,-0.07195542,0.4786255,-1.7739527,-0.32818735,-2.3241894
510,5.099999999999936,0.10293283,-0.07945585,0.56570375,-1.3669637,-1.5598444,-2.4339926
511,5.1099999999999355,0.017135147,-0.014330104,0.5265551,-0.9494373,-3.452763,-2.437047
512,5.119999999999935,-0.03378246,0.0013415418,0.48783335,-0.819323,-5.0006957,-2.3393085
513,5.129999999999935,-0.03292875,0.03445323,0.48057684,-0.8923214,-6.5678706,-2.05434
514,5.139999999999935,-0.03292875,0.03445323,0.48057684,-1.1128438,-7.467064,-1.7033978
515,5.149999999999935,0.03506302,0.042746395,0.5011268,-1.6911805,-7.99027,-0.59528816
516,5.159999999999934,0.067321,0.022806209,0.4564291,-1.8046486,-7.572744,-0.16707164
517,5.169999999999934,0.075126335,-0.61509687,-1.3411758,-3.0216448,-4.092339,0.39690968
518,5.179999999999934,0.06823569,-1.0157909,-1.1911061,-5.755878,2.1788037,0.35995236
519,5.189999999999934,0.44612357,-0.9966435,0.21885422,-6.6329274,5.1214943,-0.13958271
520,5.199999999999934,0.44612357,-0.9966435,0.21885422,-6.6329274,5.1214943,-0.13958271
521,5.209999999999933,0.44612357,-0.9966435,0.21885422,-6.6329274,5.1214943,-0.13958271
522,5.219999999999933,0.44612357,-0.9966435,0.21885422,-6.6329274,5.1214943,-0.13958271
523,5.229999999999933,-0.14702077,-2.2143974,-0.5416169,-0.23457226,9.018356,-3.5946364
524,5.239999999999933,-0.59881544,-2.221349,-0.49191895,4.340503,7.9377356,-2.7673724
525,5.2499999999999325,-0.9975582,-2.1631749,-0.42551264,6.9101076,4.7558913,-1.2712106
526,5.259999999999932,-0.9975582,-2.1631749,-0.42551264,6.9101076,4.7558913,-1.2712106
527,5.269999999999932,-0.9975582,-2.1631749,-0.42551264,6.9101076,4.7558913,-1.2712106
528,5.279999999999932,-0.9975582,-2.1631749,-0.42551264,6.9101076,4.7558913,-1.2712106
529,5.289999999999932,-0.5333848,-1.6396079,-0.05939371,7.3436694,0.70356405,6.2951193
530,5.299999999999931,-0.33684894,-1.5649694,0.031343292,6.5919995,1.8979583,7.358483
531,5.309999999999931,-0.22104947,-1.5523467,0.09762765,5.9695277,2.492483,7.655516
532,5.319999999999931,-0.22104947,-1.5523467,0.09762765,5.9695277,2.492483,7.655516
533,5.329999999999931,-0.22104947,-1.5523467,0.09762765,5.9695277,2.492483,7.655516
534,5.339999999999931,-0.22104947,-1.5523467,0.09762765,2.1529946,1.3959798,4.8356094
535,5.34999999999993,0.2859923,-0.5137495,-0.09518848,1.1458305,0.47067168,3.374725
536,5.35999999999993,0.14183754,-0.17757133,-0.009695687,0.7620544,0.07544186,2.69865
537,5.36999999999993,0.09988388,-0.09012721,-0.011647021,0.3539964,-0.55741453,1.696831
538,5.37999999999993,0.077077664,-0.021037813,-0.0127446465,0.3539964,-0.55741453,1.696831
539,5.3899999999999295,0.06384519,0.0065857503,-0.024391668,0.26358834,-0.8416196,1.3817772
540,5.399999999999929,0.06384519,0.0065857503,-0.024391668,0.26358834,-0.8416196,1.3817772
541,5.409999999999929,0.058052167,0.05780825,-0.3067862,0.42653665,-1.5807666,1.0897835
542,5.419999999999929,-0.8116937,-0.3638627,-3.90224,-1.6044376,-4.222148,1.4205672
543,5.429999999999929,-0.3606918,-0.42435405,-1.9443208,-4.661207,-6.9415674,2.1109977
544,5.4399999999999284,0.035672814,-0.27812597,-0.6064378,-5.0465107,-8.027839,2.170557
545,5.449999999999928,0.22537899,-0.25885656,0.020915855,-4.582558,-8.331744,1.7967074
546,5.459999999999928,0.17135146,-0.42941532,0.11506769,-3.5408804,-7.9873686,0.86849767
547,5.469999999999928,0.13305654,-0.6426595,0.11732392,-2.8608346,-7.6402445,-0.027947085
548,5.479999999999928,-1.0886002,-2.6834493,0.71735895,-1.4037683,-6.248235,-2.3695462
549,5.489999999999927,-1.0886002,-2.6834493,0.71735895,-0.10552697,-3.310737,-4.049578
550,5.499999999999927,-2.3062932,-4.127863,0.95536065,1.7316502,5.7403007,-1.8474092
551,5.509999999999927,-3.0313354,-4.984925,0.9021258,1.7316502,5.7403007,-1.8474092
552,5.519999999999927,-2.0057268,-4.8165007,0.5458245,3.9683332,9.710161,1.9404135
553,5.5299999999999265,-0.92956644,-3.6082594,-0.1273245,5.5321484,7.4785175,1.6070337
554,5.539999999999926,-0.92956644,-3.6082594,-0.1273245,5.5321484,7.4785175,1.6070337
555,5.549999999999926,-0.3246531,-2.553259,-1.6020447,6.2120414,5.023298,0.83108217
556,5.559999999999926,0.12933682,-1.2161685,-3.1177428,0.99265605,7.188357,-0.97112304
557,5.569999999999926,-0.23251356,-1.0936614,-1.4903919,-1.4602734,7.125743,-1.4364496
558,5.5799999999999255,-0.30581054,-0.9352985,-0.6246706,-2.767525,6.123771,-1.5567901
559,5.589999999999925,-0.30581054,-0.9352985,-0.6246706,-2.767525,6.123771,-1.5567901
560,5.599999999999925,0.012195834,-0.59655917,0.2880046,-3.2662964,3.8582249,-1.8932241
561,5.609999999999925,0.110067405,-0.35575247,0.40301132,-3.040887,2.8107438,-2.205529
562,5.619999999999925,0.1621436,-0.1905599,0.45947802,-2.7424796,2.4252877,-2.4468207
563,5.629999999999924,0.15348457,-0.08299265,0.28458977,-2.4750733,2.0690005,-2.6638305
564,5.639999999999924,0.15348457,-0.08299265,0.28458977,-2.4750733,2.0690005,-2.6638305
565,5.649999999999924,0.16818054,-0.040734082,0.20330454,-2.3623686,0.46395215,-3.0688343
566,5.659999999999924,0.1653755,-0.06500379,0.25184396,-2.3506095,-0.34284812,-3.1853569
567,5.6699999999999235,0.1475086,-0.10726235,0.3126402,-2.238821,-2.4992025,-3.3603697
568,5.679999999999923,0.1188484,-0.112689495,0.35380113,-2.1966715,-3.8221838,-3.382819
569,5.689999999999923,0.09994486,-0.11171384,0.38965687,-2.2374468,-5.255274,-3.3356297
570,5.699999999999923,0.07994369,-0.0951275,0.43654984,-2.4109323,-7.0661836,-3.142138
571,5.709999999999923,0.073723815,-0.08774903,0.4671004,-2.8855748,-8.9317665,-2.2687535
572,5.7199999999999225,0.11384811,-0.0962861,0.6045475,-2.8855748,-8.9317665,-2.2687535
573,5.729999999999922,0.11384811,-0.0962861,0.6045475,-3.0285172,-8.7474375,-1.7457001
574,5.739999999999922,-0.3664848,-0.54893446,-0.38691282,-3.091589,-5.405241,-0.5694791
575,5.749999999999922,-0.3664848,-0.54893446,-0.38691282,-3.091589,-5.405241,-0.5694791
576,5.759999999999922,-0.45167267,-1.0698185,-0.040734082,-5.89485,5.7726765,1.1859949
577,5.769999999999921,0.19970676,-0.90304047,0.9832281,-5.5147386,8.628471,0.9430232
578,5.779999999999921,0.19366984,-0.9237734,1.0672574,-4.0251436,8.804095,0.3118467
579,5.789999999999921,0.19366984,-0.9237734,1.0672574,-2.758362,8.889616,-0.048716504
580,5.799999999999921,-0.042014647,-1.1636655,0.29495624,-2.758362,8.889616,-0.048716504
581,5.809999999999921,-0.81620616,-1.9175508,-0.47594243,7.327634,0.089491755,0.86590147
582,5.81999999999992,-1.0145714,-1.7257104,-0.44325754,8.239045,-1.6473509,1.873371
583,5.82999999999992,-1.1351881,-1.5327723,-0.3907545,8.239045,-1.6473509,1.873371
584,5.83999999999992,-0.97920346,-1.5274671,-0.3936815,7.2692966,-1.0925325,4.601648
585,5.84999999999992,-0.83145094,-1.5335041,-0.29611483,6.6627073,-0.52274793,5.356372
586,5.8599999999999195,-0.5721066,-1.4655123,-0.095066525,5.207779,0.6656904,6.25862
587,5.869999999999919,-0.36191136,-1.4000207,0.0022562293,5.207779,0.6656904,6.25862
588,5.879999999999919,-0.36191136,-1.4000207,0.0022562293,5.207779,0.6656904,6.25862
589,5.889999999999919,-0.11927526,-1.1778126,-0.016586334,2.7861564,1.3826935,4.685489
590,5.899999999999919,-0.11927526,-1.1778126,-0.016586334,2.7861564,1.3826935,4.685489
591,5.909999999999918,-0.11927526,-1.1778126,-0.016586334,2.7861564,1.3826935,4.685489
592,5.919999999999918,0.17354672,-0.37246075,-0.047380816,1.2029464,0.65087694,1.361924
593,5.929999999999918,0.06780884,-0.056100838,0.01097625,0.7619017,0.12629639,0.16249016
594,5.939999999999918,0.06780884,-0.056100838,0.01097625,0.7619017,0.12629639,0.16249016
595,5.949999999999918,0.051344458,-0.0064637917,0.020001167,0.76174897,0.07238753,0.064751714
596,5.959999999999917,0.051344458,-0.0064637917,0.020001167,0.76174897,0.07238753,0.064751714
597,5.969999999999917,0.051344458,-0.0064637917,0.020001167,0.76174897,0.07238753,0.064751714
598,5.979999999999917,0.051344458,-0.0064637917,0.020001167,0.76174897,0.07238753,0.064751714
599,5.989999999999917,-0.024452647,0.06640632,-1.6887571,0.34895676,-9.76911,0.17119499
600,5.9999999999999165,-0.079029,-0.03866079,-0.7825456,-0.08964448,-12.563208,0.2753475
601,6.009999999999916,-0.079029,-0.03866079,-0.7825456,-0.08964448,-12.563208,0.2753475
602,6.019999999999916,-0.079029,-0.03866079,-0.7825456,-0.08964448,-12.563208,0.2753475
603,6.029999999999916,-0.079029,-0.03866079,-0.7825456,-0.08964448,-12.563208,0.2753475
604,6.039999999999916,-0.079029,-0.03866079,-0.7825456,-0.08964448,-12.563208,0.2753475
605,6.0499999999999154,-0.004085604,-0.27129632,-0.23220867,-3.2313244,-6.9343896,-0.659429
606,6.059999999999915,-0.76797163,-2.0742064,0.5635085,-3.5433238,-5.056132,-1.0913107
607,6.069999999999915,-2.3255625,-4.464956,1.1829959,-3.5433238,-5.056132,-1.0913107
608,6.079999999999915,-3.026823,-5.6678305,1.4485601,-2.6671903,2.0335703,-1.190729
609,6.089999999999915,-2.6416175,-5.535323,1.0082905,3.3987014,5.733734,1.2851077
610,6.099999999999914,-1.9765178,-5.1358485,0.5909491,4.4678683,7.1556754,1.5552629
611,6.109999999999914,-1.302698,-4.166463,0.23348923,5.4102807,5.7795486,0.5868888
612,6.119999999999914,-0.74681187,-2.6886325,-0.18116911,5.4102807,5.7795486,0.5868888
613,6.129999999999914,-0.3333731,-1.624546,-2.116648,5.6876135,3.270267,0.43997568
614,6.1399999999999135,0.14482552,-0.69217455,-2.0851216,-0.5009095,7.3343534,-0.6924158
615,6.149999999999913,0.068052754,-0.67833227,-1.5724088,-0.5009095,7.3343534,-0.6924158
616,6.159999999999913,-0.049332146,-0.5593619,-0.71266353,-2.547919,6.7085223,-1.5273159
617,6.169999999999913,-0.03683142,-0.44856274,-0.41502422,-2.8845057,5.478087,-1.8571831
618,6.179999999999913,0.050368793,-0.38264427,-0.24928285,-3.0069842,4.6810603,-2.078469
619,6.1899999999999125,0.085614756,-0.30922535,0.08591965,-3.2085698,3.6441166,-2.4755313
620,6.199999999999912,0.11177482,-0.26391783,0.1753151,-3.1919236,3.3706017,-2.6455047
621,6.209999999999912,0.15781409,-0.16013129,0.23586741,-3.0454686,3.0158417,-2.9330695
622,6.219999999999912,0.14635001,-0.11811664,0.286907,-2.8283062,2.3991733,-3.223994
623,6.229999999999912,0.0983594,-0.11817763,0.35758185,-2.517223,1.4486669,-3.4335208
624,6.239999999999911,0.0983594,-0.11817763,0.35758185,-2.2455406,0.27122417,-3.530954
625,6.249999999999911,0.0983594,-0.11817763,0.35758185,-2.2455406,0.27122417,-3.530954
626,6.259999999999911,-0.012561709,-0.17763232,0.56966734,-2.0245602,-0.8749117,-3.5700493
627,6.269999999999911,-0.08640748,-0.15757017,0.5837535,-1.5070046,-5.615684,-3.339295
628,6.2799999999999105,-0.11756783,-0.14805742,0.5721675,-1.5233452,-6.9114823,-3.0257683
629,6.28999999999991,-0.08335852,-0.13714215,0.5582033,-1.7507398,-7.9287252,-2.4065037
630,6.29999999999991,-0.07043094,-0.15708233,0.5478978,-2.32816,-7.1291027,-1.4921911
631,6.30999999999991,-0.74595815,-1.0641475,-1.1918379,-4.4956627,-2.8139508,-0.377362
632,6.31999999999991,-0.27257687,-1.2868433,-0.57570434,-4.4956627,-2.8139508,-0.377362
633,6.3299999999999095,0.36306998,-1.2189126,0.67199045,-6.7499084,4.223522,-0.11591168
634,6.339999999999909,0.36306998,-1.2189126,0.67199045,-6.7499084,4.223522,-0.11591168
635,6.349999999999909,0.7505316,-1.6208873,0.56777704,-6.7499084,4.223522,-0.11591168
636,6.359999999999909,0.7505316,-1.6208873,0.56777704,-2.7676778,8.133366,-3.5188892
637,6.369999999999909,0.7403481,-2.1355515,-0.46496618,-4.5139885,4.947245,-2.1612413
638,6.379999999999908,0.7403481,-2.1355515,-0.46496618,-4.5139885,4.947245,-2.1612413
639,6.389999999999908,-0.8945034,-1.5607618,-0.46112445,5.889352,-0.48487428,-0.03145956
640,6.399999999999908,-0.87608767,-1.1950088,-0.27294275,6.2497625,-2.0824397,1.7953329
641,6.409999999999908,-0.7542513,-0.98621607,-0.14708175,6.3235245,-2.381458,2.9836185
642,6.419999999999908,-0.5497882,-0.79766846,-0.08793196,6.334214,-1.9255999,4.10364
643,6.429999999999907,-0.415695,-0.7397383,-0.0775655,6.2464027,-1.2024882,4.768109
644,6.439999999999907,-0.336544,-0.7293108,-0.0028050416,6.0564237,-0.09315695,5.405852
645,6.449999999999907,-0.21421981,-0.7513853,0.013781292,5.842468,0.7102836,5.752365
646,6.459999999999907,-0.061223082,-0.7408359,-0.036953375,5.337588,1.4689782,5.8389554
647,6.4699999999999065,0.072992064,-0.66955125,-0.10177423,3.8287506,1.8399261,4.8785224
648,6.479999999999906,0.17318083,-0.58960754,-0.12610492,3.8287506,1.8399261,4.8785224
649,6.489999999999906,0.27032065,-0.28733385,-0.12640981,3.0579915,1.5201381,4.0932555
650,6.499999999999906,0.27032065,-0.28733385,-0.12640981,2.2282836,0.95294976,3.0236301
651,6.509999999999906,0.14147167,-0.064637914,-0.04469773,1.347416,0.11652254,1.6452128
652,6.519999999999905,0.1164702,-0.0052442085,-0.015915563,1.1869112,-0.094989546,1.295187
653,6.529999999999905,0.09921311,0.022928167,-0.013049542,1.12781,-0.22999077,1.1155926
654,6.539999999999905,0.10165227,0.037075333,-0.0219525,1.0937542,-0.32559118,0.9812023
655,6.549999999999905,0.069577225,0.039270584,-0.03207504,1.0596985,-0.42485678,0.8651379
656,6.559999999999905,0.069577225,0.039270584,-0.03207504,1.0596985,-0.42485678,0.8651379
657,6.569999999999904,-0.010915271,-0.0471369,-0.5191157,1.0224357,-0.59498274,0.75426584
658,6.579999999999904,-0.6006448,-0.4045358,-2.4406302,-2.2011,-4.365854,0.9830349
659,6.589999999999904,-0.6006448,-0.4045358,-2.4406302,-2.2011,-4.365854,0.9830349
660,6.599999999999904,-0.6006448,-0.4045358,-2.4406302,-2.2011,-4.365854,0.9830349
661,6.6099999999999035,-0.6006448,-0.4045358,-2.4406302,-2.2011,-4.365854,0.9830349
662,6.619999999999903,0.27995536,-0.49960235,-0.07988271,-5.218011,-5.6398134,-3.8324158
663,6.629999999999903,-2.4727662,-3.7369256,0.39776713,-5.2714615,-4.7610836,-4.4284678
664,6.639999999999903,-3.7885747,-5.2698197,1.045183,-1.5332718,-10.450835,-1.9494237
665,6.649999999999903,-3.7885747,-5.2698197,1.045183,-1.5332718,-10.450835,-1.9494237
666,6.659999999999902,-3.7885747,-5.2698197,1.045183,-1.5332718,-10.450835,-1.9494237
667,6.669999999999902,-3.7885747,-5.2698197,1.045183,-1.5332718,-10.450835,-1.9494237
668,6.679999999999902,-1.9341983,-5.441537,-2.4890478,0.79168135,4.418236,1.7965547
669,6.689999999999902,-0.45356306,-2.0818288,-0.5721066,0.66782844,5.7877955,0.046731193
670,6.699999999999902,-0.55686176,-1.2669642,-0.22598879,0.87766063,4.1839685,-0.008857546
671,6.709999999999901,-0.55686176,-1.2669642,-0.22598879,0.87766063,4.1839685,-0.008857546
672,6.719999999999901,-0.55686176,-1.2669642,-0.22598879,0.87766063,4.1839685,-0.008857546
673,6.729999999999901,-0.55686176,-1.2669642,-0.22598879,0.87766063,4.1839685,-0.008857546
674,6.739999999999901,-0.12561709,-0.201963,-0.9998144,-1.6169603,2.5590672,-0.30543262
675,6.7499999999999005,-0.12110463,-0.117384896,-0.76937413,-2.813798,3.0236301,-0.46654832
676,6.7599999999999,-0.062076796,-0.088968605,-0.39727926,-2.813798,3.0236301,-0.46654832
677,6.7699999999999,-0.0060369377,-0.09415183,-0.1408009,-3.9423716,3.8020253,-0.79504114
678,6.7799999999999,-0.008902958,-0.07341892,0.08695629,-4.020257,3.9122865,-1.0332786
679,6.7899999999999,0.013842272,-0.049027253,0.18970619,-3.8928914,3.8835757,-1.1901182
680,6.7999999999998995,0.04116094,-0.04439283,0.2303793,-3.6754234,3.7577376,-1.3448198
681,6.809999999999899,0.06573554,-0.09762765,0.29459035,-3.3875532,3.2588134,-1.5355625
682,6.819999999999899,0.041038983,-0.13281263,0.44978234,-2.9555187,2.1481075,-1.6969837
683,6.829999999999899,0.041038983,-0.13281263,0.44978234,-2.4072673,0.08246681,-1.8232801
684,6.839999999999899,0.041038983,-0.13281263,0.44978234,-2.4072673,0.08246681,-1.8232801
685,6.849999999999898,0.05768629,-0.16470474,0.6598556,-2.0398319,-1.4485142,-1.8955148
686,6.859999999999898,0.05768629,-0.16470474,0.6598556,-2.0398319,-1.4485142,-1.8955148
687,6.869999999999898,0.0015854583,-0.14122775,0.4996633,-1.2681563,-5.641035,-1.8489364
688,6.879999999999898,-0.012927583,-0.2374529,0.14836231,-1.0743593,-7.0796227,-1.4698945
689,6.8899999999998975,-0.31599405,-1.2981246,-1.1081134,-6.1205645,1.5803084,-0.7812967
690,6.899999999999897,0.06921136,-1.2254373,-0.024818521,-6.1205645,1.5803084,-0.7812967
691,6.909999999999897,0.06921136,-1.2254373,-0.024818521,-7.2254667,3.7980547,-0.9857838
692,6.919999999999897,0.25903952,-1.8962082,0.011159187,-5.1943398,3.8621955,-2.5329528
693,6.929999999999897,0.25903952,-1.8962082,0.011159187,-5.1943398,3.8621955,-2.5329528
694,6.9399999999998965,-0.57277733,-2.6150916,-0.37477797,1.6763669,-2.6934576,-2.0883956
695,6.949999999999896,-0.8496228,-2.2690349,0.00804925,2.9471195,-3.587917,-1.6300939
696,6.959999999999896,-0.8110839,-1.4179486,0.43508637,5.2534413,-3.6807685,0.0021380284
697,6.969999999999896,-0.69296724,-1.1136016,0.4378914,5.797111,-2.9571986,0.7499898
698,6.979999999999896,-0.6232071,-0.88974696,0.34471524,6.184858,-2.194228,1.5396858
699,6.989999999999895,-0.5800948,-0.76699597,0.24958774,6.307642,-1.6678149,2.0496056
700,6.999999999999895,-0.4788084,-0.7057119,0.1709246,6.358496,-0.86361074,2.554333
701,7.009999999999895,-0.34599578,-0.64418393,0.11153089,6.311307,-0.12507465,2.7528641
702,7.019999999999895,-0.187328,-0.5834487,0.048051585,6.0993366,0.7669413,2.6401596
703,7.0299999999998946,-0.0011586042,-0.47545454,-0.06299148,5.7786326,1.3842206,2.2014055
704,7.039999999999894,0.1167751,-0.38910806,-0.11305538,5.224578,1.8993328,1.3773484
705,7.049999999999894,0.10653061,-0.16543648,-0.096895896,4.3563857,2.1029036,0.026419923
706,7.059999999999894,0.10653061,-0.16543648,-0.096895896,4.3563857,2.1029036,0.026419923
707,7.069999999999894,0.07000408,-0.026708877,-0.2344649,4.069737,2.031127,-0.29428434
708,7.0799999999998935,0.051466417,0.04164877,-0.468442,3.830278,1.8828394,-0.42485678
709,7.089999999999893,0.005732042,0.10634767,-0.86681885,2.9718595,0.8312349,-0.56062156
710,7.099999999999893,0.005732042,0.10634767,-0.86681885,0.57528234,-2.5086708,-0.49586987
711,7.109999999999893,-0.2461729,0.08152915,-0.9587145,0.57528234,-2.5086708,-0.49586987
712,7.119999999999893,-0.084578104,0.017744938,-0.35349622,-1.0684034,-4.8243084,-0.22510384
713,7.129999999999892,0.040124293,0.013049542,0.05567398,-1.8774943,-5.9008055,0.045814894
714,7.139999999999892,0.07207738,-0.033843435,0.10726235,-1.6963727,-5.6019397,-0.110872045
715,7.149999999999892,0.036465544,-0.089700356,0.093481064,-1.5402967,-5.170516,-0.3306308
716,7.159999999999892,-0.16848545,-0.42343935,0.06726002,-1.4940237,-4.317748,-0.77549344
717,7.169999999999892,-0.6466231,-0.9891431,0.10738432,-1.6985108,-3.4455855,-1.109484
718,7.179999999999891,-1.5966176,-2.080975,0.36666775,-2.1864395,-1.5946637,-1.156826
719,7.189999999999891,-2.8119934,-3.462397,0.6302197,-2.4943156,1.379181,-0.37094793
720,7.199999999999891,-3.4201994,-4.239089,0.64101297,-2.35626,3.7184894,1.0112875
721,7.209999999999891,-3.7416205,-5.3284206,0.32514092,1.2556335,-4.0391936,3.0723467
722,7.2199999999998905,-2.4591677,-4.7203364,0.25403923,3.1905491,-6.048635,2.8799243
723,7.22999999999989,-1.6643654,-4.1085324,-0.14756958,3.1905491,-6.048635,2.8799243
724,7.23999999999989,0.19214535,-3.1521351,-3.284338,1.2759448,-3.954436,1.8009834
725,7.24999999999989,-0.51265186,-1.9802375,-0.23092812,-1.2663237,4.10196,1.3994923
726,7.25999999999989,-0.44002566,-1.6825373,0.042014647,-0.44135013,4.6250134,1.6618589
727,7.269999999999889,-0.29452938,-1.3789219,0.07823627,0.0009162979,4.8181996,1.5942056
728,7.279999999999889,-0.29452938,-1.3789219,0.07823627,0.0009162979,4.8181996,1.5942056
729,7.289999999999889,-0.29452938,-1.3789219,0.07823627,0.0009162979,4.8181996,1.5942056
730,7.299999999999889,-0.025428312,-0.81724274,-0.0629305,0.93202764,5.1744866,0.89995724
731,7.309999999999889,-0.025428312,-0.81724274,-0.0629305,0.93202764,5.1744866,0.89995724
732,7.319999999999888,0.24568506,-0.2072682,-0.7913876,-0.06490443,6.8273354,-0.42821655
733,7.329999999999888,0.25483194,-0.11427496,-0.6866864,-0.70234233,7.3731437,-0.860251
734,7.339999999999888,0.23836756,-0.09622513,-0.5052734,-1.3272575,7.4782124,-1.3796391
735,7.349999999999888,0.23836756,-0.09622513,-0.5052734,-1.3272575,7.4782124,-1.3796391
736,7.3599999999998875,0.23836756,-0.09622513,-0.5052734,-1.3272575,7.4782124,-1.3796391
737,7.369999999999887,0.23836756,-0.09622513,-0.5052734,-1.3272575,7.4782124,-1.3796391
738,7.379999999999887,0.118055664,-0.10689648,0.18366925,-1.7595973,6.1741676,-2.1905627
739,7.389999999999887,0.094212815,-0.1358006,0.34410545,-1.1523973,3.3368514,-2.7977629
740,7.399999999999887,0.06225973,-0.16439983,0.4416111,-0.7663304,1.9475911,-2.915507
741,7.4099999999998865,0.06225973,-0.16439983,0.4416111,-0.7663304,1.9475911,-2.915507
742,7.419999999999886,0.06225973,-0.16439983,0.4416111,-0.7663304,1.9475911,-2.915507
743,7.429999999999886,0.034026377,-0.18068127,0.44734317,-0.7663304,1.9475911,-2.915507
744,7.439999999999886,-0.1393374,-0.1832424,0.13378829,-0.903317,-7.5110464,-2.4885123
745,7.449999999999886,-0.2093415,-0.24306297,0.00030489583,-0.903317,-7.5110464,-2.4885123
746,7.459999999999885,-0.2093415,-0.24306297,0.00030489583,-0.903317,-7.5110464,-2.4885123
747,7.469999999999885,-0.2093415,-0.24306297,0.00030489583,-0.903317,-7.5110464,-2.4885123
748,7.479999999999885,-0.2093415,-0.24306297,0.00030489583,-0.903317,-7.5110464,-2.4885123
749,7.489999999999885,-0.1381178,-0.8140109,-0.7994369,-5.4918313,1.8371773,-1.4792101
750,7.4999999999998845,0.027684543,-1.726808,0.8308411,-3.504534,4.572021,-1.8768835
751,7.509999999999884,-0.06457694,-2.3628817,-0.3561793,-2.7617218,6.29405,-1.919644
752,7.519999999999884,-0.43514732,-3.509595,-0.99444824,-1.2707524,6.4736443,-1.5732834
753,7.529999999999884,-0.72662777,-3.1513424,-0.41697556,2.990949,0.58123827,0.26389378
754,7.539999999999884,-0.76913023,-2.9083405,-0.40380403,4.130213,-1.7253889,1.3999504
755,7.5499999999998835,-0.6243047,-2.0849998,-0.4607586,4.853172,-3.4581082,3.416722
756,7.559999999999883,-0.5282015,-1.4063625,-0.42667124,4.6230283,-2.9396362,4.169308
757,7.569999999999883,-0.45301422,-1.0395119,-0.3164209,4.258647,-2.0195205,4.7186284
758,7.579999999999883,-0.3506302,-0.8114498,-0.21050009,3.8191295,-0.805884,5.1696
759,7.589999999999883,-0.24989262,-0.65168434,-0.13836174,3.565315,-0.20555615,5.2841372
760,7.599999999999882,-0.0775655,-0.50448066,-0.003963646,3.1994066,0.52305335,5.106375
761,7.609999999999882,0.0757971,-0.34959355,-0.034514207,2.713769,1.061073,3.8580723
762,7.619999999999882,0.22123243,-0.1411058,-0.02494048,2.713769,1.061073,3.8580723
763,7.629999999999882,0.16287535,-0.05652769,0.0065857503,2.4678955,0.9621128,2.4807239
764,7.6399999999998816,0.16287535,-0.05652769,0.0065857503,2.4678955,0.9621128,2.4807239
765,7.649999999999881,0.13750802,0.012561709,0.014269125,2.4275784,0.77931136,1.9747746
766,7.659999999999881,0.14445965,0.05049075,-0.017318083,2.4610233,0.47250426,1.5822937
767,7.669999999999881,0.1188484,0.059027832,-0.045917314,2.4801128,0.20616703,1.3962852
768,7.679999999999881,0.1188484,0.059027832,-0.045917314,2.4801128,0.20616703,1.3962852
769,7.6899999999998805,0.1428132,0.07939488,-0.114153,2.462245,-0.089491755,1.2652546
770,7.69999999999988,0.109884456,0.12140953,-0.3153233,2.0977113,-1.4752395,0.9089675
771,7.70999999999988,-0.3273362,0.31123766,-3.44764,-0.59406644,-3.7589593,0.8549059
772,7.71999999999988,-0.14299615,0.04414892,-0.67363685,-3.2403347,-5.7338867,1.3846788
773,7.72999999999988,0.110067405,0.038051,0.11360419,-3.090062,-5.8378863,1.3738359
774,7.739999999999879,0.15226498,0.013598354,0.1542773,-2.6653578,-5.6025505,1.1491902
775,7.749999999999879,0.15555786,0.002927,0.16805859,-2.264172,-5.2526774,0.79061234
776,7.759999999999879,0.19738956,-0.03603869,0.10366459,-1.8852829,-4.8827987,0.034208454
777,7.769999999999879,0.23903833,-0.2994687,0.093664,-1.8553505,-4.8247666,-1.1562152
778,7.779999999999879,0.09695688,-0.6802836,0.14714272,-1.8553505,-4.8247666,-1.1562152
779,7.789999999999878,0.09695688,-0.6802836,0.14714272,-1.8553505,-4.8247666,-1.1562152
780,7.799999999999878,0.09695688,-0.6802836,0.14714272,-1.8553505,-4.8247666,-1.1562152
781,7.809999999999878,-4.49886,-5.9110155,1.2447678,-0.279929,1.0178542,-1.498147
782,7.819999999999878,-4.646125,-6.2607923,1.26172,1.1873693,0.52366424,0.4118759
783,7.8299999999998775,-3.0131028,-5.9023566,0.63534194,4.4386997,-0.06918049,3.8577666
784,7.839999999999877,-1.159336,-4.0961537,-0.30538365,3.980398,0.9767735,1.055117
785,7.849999999999877,-0.21007323,-1.7832749,-2.4173362,1.8510745,5.0368896,-0.046883907
786,7.859999999999877,-0.36800927,-1.4515481,-1.5760676,0.3839288,6.42279,-0.20357084
787,7.869999999999877,-0.35727695,-1.0878073,-0.8031566,-0.6076582,7.122078,-0.17470746
788,7.879999999999876,-0.24781933,-0.72516423,-0.40447482,-0.88300574,6.745632,-0.14431691
789,7.889999999999876,-0.14208147,-0.5087492,-0.28672403,-0.9306532,6.1106377,-0.1872302
790,7.899999999999876,-0.14208147,-0.5087492,-0.28672403,-1.0177015,5.276196,-0.34223726
791,7.909999999999876,0.063418336,-0.14872819,-0.28416294,-1.1664472,4.7073274,-0.55481833
792,7.919999999999876,0.14189851,-0.033965394,-0.35160586,-1.4236214,4.2633815,-0.81397796
793,7.929999999999875,0.123299874,0.04329521,-0.39215705,-1.9631681,4.125173,-1.1594223
794,7.939999999999875,0.12128756,0.042197585,-0.2830043,-2.3081543,4.2021422,-1.3368785
795,7.949999999999875,0.12525122,0.012805625,-0.027257688,-2.6978865,4.159992,-1.6584991
796,7.959999999999875,0.13927643,-0.0039026667,0.04469773,-2.8006644,3.712228,-1.9385809
797,7.9699999999998745,0.105615914,-0.042380523,0.122324206,-2.823419,3.1722233,-2.1444426
798,7.979999999999874,0.105615914,-0.042380523,0.122324206,-2.823419,3.1722233,-2.1444426
799,7.989999999999874,0.08244383,-0.087992944,0.22690348,-2.6966646,2.2719605,-2.3235786
800,7.999999999999874,0.04530752,-0.15452121,0.3740462,-2.4952319,-1.2473868,-2.6355782
801,8.009999999999874,0.0043905,-0.21379296,0.5054563,-2.3651175,-4.977941,-2.6145031
802,8.019999999999873,0.0043905,-0.21379296,0.5054563,-2.3651175,-4.977941,-2.6145031
803,8.029999999999873,0.0043905,-0.21379296,0.5054563,-2.3651175,-4.977941,-2.6145031
804,8.039999999999873,0.0043905,-0.21379296,0.5054563,-2.3651175,-4.977941,-2.6145031
805,8.049999999999873,-0.42624438,-0.69851637,-0.5669233,-3.3786957,-4.3603563,-1.6618589
806,8.059999999999873,-0.42624438,-0.69851637,-0.5669233,-3.3786957,-4.3603563,-1.6618589
807,8.069999999999872,-0.17726645,-1.1989725,0.04256346,-5.8304033,2.2177463,-0.96791595
808,8.079999999999872,-0.09683492,-1.3614209,0.28757775,-5.9333344,3.599829,-1.1064297
809,8.089999999999872,0.094517715,-1.6688778,0.24794129,-2.8319712,4.222606,-2.4926357
810,8.099999999999872,-0.3978281,-2.49417,-0.39057156,0.4474588,-0.45769078,-2.051438
811,8.109999999999872,-0.3978281,-2.49417,-0.39057156,0.4474588,-0.45769078,-2.051438
812,8.119999999999871,-0.3978281,-2.49417,-0.39057156,0.4474588,-0.45769078,-2.051438
813,8.129999999999871,-0.3978281,-2.49417,-0.39057156,0.4474588,-0.45769078,-2.051438
814,8.139999999999871,-0.8865151,-1.206046,0.09939604,4.7589455,-3.0104966,0.52473325
815,8.14999999999987,-0.58241206,-0.6524161,0.26568624,5.092631,-0.9448558,2.5271494
816,8.15999999999987,-0.45899022,-0.5284454,0.23178181,5.2710032,-0.3801109,3.122896
817,8.16999999999987,-0.34971553,-0.46508813,0.1853157,5.362786,0.032375857,3.4277177
818,8.17999999999987,-0.34971553,-0.46508813,0.1853157,5.352096,0.42546764,3.5030067
819,8.18999999999987,-0.21708584,-0.41532913,0.10122541,5.2181635,0.7623598,3.3417382
820,8.19999999999987,0.015305771,-0.3123353,0.0,4.9944344,0.9728029,2.8753426
821,8.20999999999987,0.16763173,-0.20787798,-0.08994427,4.1609087,0.7244862,1.3081679
822,8.21999999999987,0.16763173,-0.20787798,-0.08994427,4.1609087,0.7244862,1.3081679
823,8.229999999999869,0.081956,-0.09579827,-0.06683317,3.8169916,0.42821655,0.61712664
824,8.239999999999869,0.05689356,-0.060186442,-0.018293751,3.4897203,0.110413894,0.034055736
825,8.249999999999869,0.04896627,-0.04756375,-0.0131715005,3.308599,-0.2782491,-0.34468073
826,8.259999999999868,0.04896627,-0.04756375,-0.0131715005,3.308599,-0.2782491,-0.34468073
827,8.269999999999868,0.04896627,-0.04756375,-0.0131715005,3.308599,-0.2782491,-0.34468073
828,8.279999999999868,0.04896627,-0.04756375,-0.0131715005,3.308599,-0.2782491,-0.34468073
829,8.289999999999868,-0.43715966,0.048112564,-2.335441,0.26419923,-5.347667,0.07788532
830,8.299999999999867,0.050734665,-0.097749606,-0.012561709,-0.9767735,-6.991811,0.356898
831,8.309999999999867,0.019391375,-0.20178007,-0.033477563,-1.1067351,-6.7915998,0.1142318
832,8.319999999999867,-0.07390675,-0.40026724,-0.04756375,-1.4932601,-6.328564,-0.37690386
833,8.329999999999867,-0.50045604,-0.96578807,-0.04396598,-2.095726,-5.677687,-0.8361218
834,8.339999999999867,-1.0808557,-1.5746651,0.10683551,-2.9326112,-4.35776,-1.0621419
835,8.349999999999866,-2.4423378,-3.023591,0.64887935,-3.9660425,-0.66355234,-0.33765575
836,8.359999999999866,-3.2203708,-3.8892512,0.679125,-4.2681155,1.5012014,0.4981606
837,8.369999999999866,-3.7940629,-5.2436595,-0.6417448,-3.702149,-0.29993483,2.426204
838,8.379999999999866,-2.4578264,-4.633075,0.2602591,0.09758572,-11.279474,4.0440807
839,8.389999999999866,-1.6589993,-4.1431684,-0.027684543,1.3599387,-11.45693,3.3347135
840,8.399999999999865,-0.12628786,-3.1259751,-2.1490278,-0.24510968,-4.6697593,1.6487253
841,8.409999999999865,-0.39240095,-2.453497,-0.772606,-1.2205088,1.617724,0.9952522
842,8.419999999999865,-0.5371045,-1.6095451,0.051344458,-0.7136433,4.68946,1.0151054
843,8.429999999999865,-0.5371045,-1.6095451,0.051344458,-0.7136433,4.68946,1.0151054
844,8.439999999999864,-0.45252642,-1.3980085,0.048112564,0.5694791,4.720919,1.087951
845,8.449999999999864,-0.1414107,-0.70040673,-0.3369709,1.5462526,3.717726,0.42546764
846,8.459999999999864,-0.1414107,-0.70040673,-0.3369709,1.5462526,3.717726,0.42546764
847,8.469999999999864,-0.0160985,-0.12537317,-1.3295897,0.27320948,5.2392383,-0.24831672
848,8.479999999999864,-0.0160985,-0.12537317,-1.3295897,0.27320948,5.2392383,-0.24831672
849,8.489999999999863,0.023781875,-0.057015523,-0.91627294,-1.8307631,6.5467954,-0.9923506
850,8.499999999999863,0.062320713,-0.11092111,-0.49033347,-2.4130704,6.4386725,-1.4103352
851,8.509999999999863,0.0775655,-0.16519257,-0.12598296,-2.535396,5.892864,-1.7672331
852,8.519999999999863,0.08409027,-0.19440159,0.16927817,-2.3338106,4.8365254,-2.1604776
853,8.529999999999863,0.056344748,-0.17318083,0.3032494,-2.1053472,4.2372665,-2.3315198
854,8.539999999999862,0.016403396,-0.1662902,0.3919741,-1.521818,3.029739,-2.5002716
855,8.549999999999862,0.023781875,-0.17165637,0.3886812,-1.1539245,2.062892,-2.5502098
856,8.559999999999862,0.026343001,-0.16324124,0.2775162,-0.8770498,0.5180137,-2.6253462
857,8.569999999999862,-0.042990312,-0.15226498,0.1797056,-0.91446525,-0.84314674,-2.6285532
858,8.579999999999862,-0.10903075,-0.16458277,0.11384811,-1.1976013,-2.313194,-2.5434902
859,8.589999999999861,-0.15476513,-0.20202398,0.07585809,-1.9124664,-4.392274,-2.2214115
860,8.599999999999861,-0.15433827,-0.21611017,0.09213952,-2.1626158,-4.970916,-2.063961
861,8.60999999999986,-0.14848427,-0.38886416,0.1853157,-2.9162707,-6.231742,-1.3968961
862,8.61999999999986,-0.1428132,-0.54234874,0.16055815,-3.374725,-5.81391,-0.86315256
863,8.62999999999986,-0.09244442,-0.9959117,0.11403105,-3.636939,-4.894863,-0.5847508
864,8.63999999999986,-0.031770147,-1.2315353,0.23251356,-4.4109054,1.0425943,-0.22143865
865,8.64999999999986,0.16610725,-1.4774033,0.5362508,-4.339281,3.4142785,-0.49373183
866,8.65999999999986,0.2851386,-1.7341865,0.47874746,-3.9606977,5.8592668,-1.2060007
867,8.66999999999986,0.2851386,-1.7341865,0.47874746,-3.9606977,5.8592668,-1.2060007
868,8.67999999999986,0.2851386,-1.7341865,0.47874746,-3.9606977,5.8592668,-1.2060007
869,8.68999999999986,0.2851386,-1.7341865,0.47874746,-3.9606977,5.8592668,-1.2060007
870,8.699999999999859,0.2851386,-1.7341865,0.47874746,-3.9606977,5.8592668,-1.2060007
871,8.709999999999859,-1.1801298,-2.3574545,-0.77339876,3.031877,-3.6697729,0.30497447
872,8.719999999999859,-0.9002964,-1.7722375,-0.58820504,3.5521815,-4.109138,2.191479
873,8.729999999999858,-0.46069762,-0.75980043,-0.00219525,3.6424367,-3.5181258,2.8083003
874,8.739999999999858,-0.46069762,-0.75980043,-0.00219525,3.7835467,-2.9663615,3.0079005
875,8.749999999999858,-0.46069762,-0.75980043,-0.00219525,3.7835467,-2.9663615,3.0079005
876,8.759999999999858,-0.46069762,-0.75980043,-0.00219525,3.7835467,-2.9663615,3.0079005
877,8.769999999999857,-0.38386387,-0.5839975,0.10848194,3.7835467,-2.9663615,3.0079005
878,8.779999999999857,-0.043783043,-0.22123243,0.10451829,4.3828053,-0.3585779,2.4981334
879,8.789999999999857,0.13037346,-0.122446164,0.03146525,4.364327,-0.07849618,2.1519256
880,8.799999999999857,0.12970269,-0.046039272,0.0017683958,4.26277,0.12965615,1.4323263
881,8.809999999999857,0.12970269,-0.046039272,0.0017683958,4.26277,0.12965615,1.4323263
882,8.819999999999856,0.12970269,-0.046039272,0.0017683958,4.26277,0.12965615,1.4323263
883,8.829999999999856,0.09268834,-0.03506302,-0.008476105,4.1204386,-0.19807306,0.8724683
884,8.839999999999856,0.070735835,-0.00798827,-0.021220751,4.1410556,-0.28588495,0.7996226
885,8.849999999999856,0.07341892,-0.009024917,-0.045063604,4.1491494,-0.45448375,0.6815729
886,8.859999999999856,0.079638794,0.0035367915,-0.08805392,4.1137195,-0.70509124,0.5821546
887,8.869999999999855,-0.24123359,0.11140894,-1.9745663,3.9860485,-1.0685561,0.47143525
888,8.879999999999855,-0.7429092,-0.11232363,-2.821872,3.3373096,-1.7427986,0.43478334
889,8.889999999999855,-0.069760166,-0.056771606,-0.37630245,-1.5774068,-4.5062003,1.5479325
890,8.899999999999855,0.05329579,-0.030306645,-0.15738723,-1.866346,-4.5254426,1.3455834
891,8.909999999999854,0.14263028,-0.05963763,-0.15976542,-1.866346,-4.5254426,1.3455834
892,8.919999999999854,0.2660521,-0.27910164,-0.13775194,-2.58564,-4.6019535,-0.18295415
893,8.929999999999854,0.26538134,-0.53960466,-0.06390616,-3.0147727,-4.4109054,-1.1847731
894,8.939999999999854,-0.8149866,-1.8247405,0.1890964,-4.4017425,-2.698192,-3.982536
895,8.949999999999854,-2.004812,-3.0865216,0.6483305,-5.16624,0.37110063,-5.0617824
896,8.959999999999853,-4.991511,-6.259268,0.0043905,-4.2571197,2.9808698,-3.2672129
897,8.969999999999853,-4.8874803,-6.614593,0.24275808,0.63438356,-5.976553,1.4785993
898,8.979999999999853,-2.376907,-5.8658915,-1.9215146,2.203849,-6.346279,3.7936258
899,8.989999999999853,-0.7760209,-2.6705217,-0.39270583,-0.3622431,1.9640845,2.0954206
900,8.999999999999853,-0.7760209,-2.6705217,-0.39270583,-0.9673051,4.23406,1.197754
901,9.009999999999852,-0.6184507,-1.4699638,0.11262852,-0.81046546,4.794834,0.875828
902,9.019999999999852,-0.6184507,-1.4699638,0.11262852,-0.5012149,4.730846,0.8561276
903,9.029999999999852,-0.4679541,-1.124151,0.0670161,-0.2509129,4.490776,0.9088148
904,9.039999999999852,-0.076102,-0.46764925,-0.22415942,-0.09132435,4.1195226,0.9236283
905,9.049999999999851,0.12506826,-0.22818404,-0.7065656,-0.35827246,3.3496795,0.6412558
906,9.059999999999851,0.28196767,-0.02713573,-1.0704893,-1.2466233,3.6913059,0.25503623
907,9.069999999999851,0.28519958,0.043478146,-0.94267696,-1.2466233,3.6913059,0.25503623
908,9.07999999999985,0.23306239,0.039087646,-0.5435683,-2.8522825,4.62089,-0.59941155
909,9.08999999999985,0.17818113,0.0336605,-0.31550622,-3.223536,4.7473392,-0.9472993
910,9.09999999999985,0.103115775,-0.0015244792,-0.0482955,-3.378085,4.7203083,-1.3029755
911,9.10999999999985,0.04402696,-0.05683258,0.14525238,-3.2844696,4.5020766,-1.5106697
912,9.11999999999985,0.0015244792,-0.1015913,0.23605035,-3.0874658,3.986812,-1.64674
913,9.12999999999985,-0.017135147,-0.14726469,0.32654345,-2.7655396,2.977968,-1.7457001
914,9.13999999999985,-0.017135147,-0.14726469,0.32654345,-2.7655396,2.977968,-1.7457001
915,9.14999999999985,-0.028477272,-0.22172025,0.5320433,-2.3961189,1.3397802,-1.8089247
916,9.15999999999985,-0.1323248,-0.2672717,0.360021,-1.8141171,-2.8286116,-1.8309158
917,9.169999999999849,-0.27105242,-0.336605,-0.011829958,-2.017077,-4.006207,-1.6094772
918,9.179999999999849,-0.386364,-0.4763083,-0.19793838,-2.6482534,-4.263534,-1.2246321
919,9.189999999999849,-0.41258505,-0.6141212,-0.27300373,-3.4472654,-3.7502544,-0.786489
920,9.199999999999848,-0.44606262,-1.0424389,-0.3284948,-4.892878,-1.6420058,-0.17180584
921,9.209999999999848,-0.23873344,-1.2661104,0.1870231,-5.8116193,0.6009387,0.013744468
922,9.219999999999848,-0.115555525,-1.4162412,0.6857108,-5.8116193,0.6009387,0.013744468
923,9.229999999999848,-0.115555525,-1.4162412,0.6857108,-5.8116193,0.6009387,0.013744468
924,9.239999999999847,-0.115555525,-1.4162412,0.6857108,-5.731443,2.0841196,-0.13607024
925,9.249999999999847,-0.05256404,-2.0431678,-0.9759716,0.3387248,-3.9602394,-1.2705997
926,9.259999999999847,-0.32568973,-1.3794098,-0.32068944,0.3387248,-3.9602394,-1.2705997
927,9.269999999999847,-0.4689298,-0.6914428,0.34672755,3.3944254,-5.541922,-0.14752395
928,9.279999999999847,-0.4689298,-0.6914428,0.34672755,3.3944254,-5.541922,-0.14752395
929,9.289999999999846,-0.4689298,-0.6914428,0.34672755,3.3944254,-5.541922,-0.14752395
930,9.299999999999846,-0.5653379,-0.51905465,0.48545516,3.3944254,-5.541922,-0.14752395
931,9.309999999999846,-0.48539415,-0.5790582,0.31940886,5.480836,-2.5960245,1.1685852
932,9.319999999999846,-0.41971964,-0.6893085,0.29751736,5.867513,-1.6334536,0.8257371
933,9.329999999999846,-0.40166977,-0.7759599,0.30166394,6.1434717,-0.89995724,0.41706824
934,9.339999999999845,-0.37337545,-0.90273565,0.22409843,6.5544314,0.6375906,-0.62888575
935,9.349999999999845,-0.368863,-0.9225539,0.12445848,6.6284986,2.0497584,-1.7438675
936,9.359999999999845,-0.38441268,-0.83071923,0.0646989,6.6284986,2.0497584,-1.7438675
937,9.369999999999845,-0.38441268,-0.83071923,0.0646989,6.6284986,2.0497584,-1.7438675
938,9.379999999999844,-0.3497765,-0.6776005,0.020793896,6.6284986,2.0497584,-1.7438675
939,9.389999999999844,-0.3497765,-0.6776005,0.020793896,6.6284986,2.0497584,-1.7438675
940,9.399999999999844,-0.06061329,-0.29227313,-0.27147925,6.391636,2.5830436,-0.89369583
941,9.409999999999844,-0.0043905,0.12793429,-1.6815006,4.485278,0.59483004,-0.95371336
942,9.419999999999844,-0.0043905,0.12793429,-1.6815006,2.3868032,-1.5448782,-1.08902
943,9.429999999999843,-0.0043905,0.12793429,-1.6815006,2.3868032,-1.5448782,-1.08902
944,9.439999999999843,-0.0043905,0.12793429,-1.6815006,2.3868032,-1.5448782,-1.08902
945,9.449999999999843,-0.0043905,0.12793429,-1.6815006,2.3868032,-1.5448782,-1.08902
946,9.459999999999843,-0.43228132,-0.5696064,0.115128666,-0.9842566,-2.7601945,0.28313604
947,9.469999999999843,-0.43228132,-0.5696064,0.115128666,-0.9842566,-2.7601945,0.28313604
948,9.479999999999842,-0.6612581,-0.93328613,0.07488242,-1.1049025,-2.115121,0.36911532
949,9.489999999999842,-0.6612581,-0.93328613,0.07488242,-1.1049025,-2.115121,0.36911532
950,9.499999999999842,-0.6612581,-0.93328613,0.07488242,-1.1049025,-2.115121,0.36911532
951,9.509999999999842,-0.6612581,-0.93328613,0.07488242,-1.1049025,-2.115121,0.36911532
952,9.519999999999841,-1.4620975,-2.1029277,0.2376968,-1.9405662,0.08781188,0.46486846
953,9.529999999999841,-1.7058313,-4.2865915,0.16318026,2.085494,-3.5089626,3.120605
954,9.539999999999841,-1.2302547,-3.8760188,-0.2172078,1.5042557,-2.1116085,2.242639
955,9.54999999999984,-0.3577038,-2.7660758,-1.6358271,0.22785273,0.9427178,1.4048374
956,9.55999999999984,-0.3577038,-2.7660758,-1.6358271,0.22785273,0.9427178,1.4048374
957,9.56999999999984,-0.27660152,-1.4717932,-0.64802563,-0.7102836,5.3169713,1.0737484
958,9.57999999999984,-0.17324181,-1.1714097,-0.6302197,-0.5112942,5.580254,0.84391034
959,9.58999999999984,-0.17324181,-1.1714097,-0.6302197,-0.39538252,5.4194436,0.52610767
960,9.59999999999984,-0.010366458,-0.67772245,-0.6395495,-0.83169305,5.29834,-0.13316862
961,9.60999999999984,-0.010366458,-0.67772245,-0.6395495,-0.83169305,5.29834,-0.13316862
962,9.61999999999984,0.19129165,-0.32215294,-0.48935783,-1.351234,5.3760724,-0.6249151
963,9.62999999999984,0.21824445,-0.2403189,-0.4072189,-1.7734945,5.3617167,-1.0813842
964,9.639999999999839,0.17293692,-0.15854584,-0.20940247,-2.6476426,4.9312096,-2.051591
965,9.649999999999839,0.14891112,-0.16336319,0.004817354,-2.7913487,4.514905,-2.2635612
966,9.659999999999838,0.12830016,-0.16507061,0.26538134,-2.7235427,3.251483,-2.579684
967,9.669999999999838,0.1606801,-0.17220518,0.40173078,-2.4750733,2.1372647,-2.7620273
968,9.679999999999838,0.14165461,-0.20037755,0.4677102,-2.0540345,0.42943826,-2.9614747
969,9.689999999999838,0.12634884,-0.22476922,0.50045604,-1.6814066,-1.736079,-3.104417
970,9.699999999999838,0.12634884,-0.22476922,0.50045604,-1.6814066,-1.736079,-3.104417
971,9.709999999999837,0.12634884,-0.22476922,0.50045604,-1.698358,-5.4553323,-3.086702
972,9.719999999999837,0.12634884,-0.22476922,0.50045604,-2.0309741,-7.1853023,-2.7942502
973,9.729999999999837,-0.079333894,-0.21824445,0.34873986,-2.2777638,-7.6746054,-2.4952319
974,9.739999999999837,-0.24824621,-0.37611952,-0.07402871,-3.1038063,-6.534731,-1.6035212
975,9.749999999999837,-0.27105242,-0.6598556,-0.35874045,-4.107916,-3.9072468,-0.9379836
976,9.759999999999836,-0.21611017,-1.0423169,-0.11958014,-5.36019,0.17348573,-0.3633121
977,9.769999999999836,-0.057015523,-1.2534268,0.28519958,-5.8991256,3.5866952,-0.22785273
978,9.779999999999836,0.16196068,-1.3508716,0.48057684,-5.9206586,4.575075,-0.3494149
979,9.789999999999836,0.32886064,-1.5405777,0.42953727,-5.668371,6.39301,-1.0477866
980,9.799999999999836,0.32886064,-1.5405777,0.42953727,-5.668371,6.39301,-1.0477866
981,9.809999999999835,-0.63150024,-1.8357168,-0.66955125,2.654515,-0.66538495,-1.7014124
982,9.819999999999835,-0.807852,-1.5498465,-0.55344695,4.005596,-3.0564642,-0.8781188
983,9.829999999999835,-0.65369666,-1.0087174,-0.19745055,4.782769,-4.152815,0.46838093
984,9.839999999999835,-0.5293601,-0.6955284,0.10110346,4.886311,-3.557832,1.2360858
985,9.849999999999834,-0.5293601,-0.6955284,0.10110346,5.041013,-3.0129402,1.720502
986,9.859999999999834,-0.34782517,-0.442038,0.22647662,5.256343,-2.4738514,2.094046
987,9.869999999999834,-0.34782517,-0.442038,0.22647662,5.256343,-2.4738514,2.094046
988,9.879999999999834,-0.1630583,-0.32416525,0.15232596,5.674938,-1.0302242,2.580142
989,9.889999999999834,-0.09695688,-0.295627,0.105372004,5.7425914,-0.4718934,2.6369526
990,9.899999999999833,-0.09695688,-0.295627,0.105372004,5.7074666,0.12965615,2.5975518
991,9.909999999999833,-0.09695688,-0.295627,0.105372004,5.7074666,0.12965615,2.5975518
992,9.919999999999833,0.08921252,-0.15653352,-0.026525937,5.422651,0.6033822,2.2953262
993,9.929999999999833,0.110006414,-0.122751065,-0.029209021,5.2288537,0.67011917,2.0625865
994,9.939999999999833,0.11622629,-0.10811607,-0.023964813,5.136613,0.6534731,1.9323195
995,9.949999999999832,0.13647138,-0.09183463,-0.014208145,4.9872565,0.47739118,1.6629279
996,9.959999999999832,0.13695921,-0.07677277,-0.023598937,4.874705,0.3397938,1.4549283
997,9.969999999999832,0.09402988,-0.074272625,-0.06695513,4.68274,0.040317107,1.1612549
998,9.979999999999832,0.09402988,-0.074272625,-0.06695513,4.4371724,-0.07498371,0.99021256
999,9.989999999999831,0.10732334,-0.046527103,-0.39758417,4.4371724,-0.07498371,0.99021256
1000,9.999999999999831,-0.45063603,-0.4074628,-2.4254465,0.14935656,1.4213307,1.0071641
