id,timestamp,acc_x,acc_y,acc_z,gyro_x,gyro_y,gyro_z
0,0,0.7308963,0.30672523,-0.24574605,0.113162786,0.4981606,0.014049901
1,0.01,0.73461604,0.3126402,-0.23117203,0.6218608,0.1366811,0.20845777
2,0.02,0.804986,0.26775953,-0.36782634,0.6218608,0.1366811,0.20845777
3,0.03,0.804986,0.26775953,-0.36782634,0.71883565,0.12629639,0.17470746
4,0.04,0.81455976,0.2335502,-0.42917135,0.6914995,0.22479841,0.12034045
5,0.05,0.8043152,0.22684251,-0.51692045,0.27565295,0.7443393,-0.032375857
6,0.060000000000000005,0.81803554,0.24501431,-0.49021152,0.15118915,0.8680395,-0.065515295
7,0.07,0.81596226,0.2807481,-0.45069703,0.18035796,0.90484416,-0.075289145
8,0.08,0.81876725,0.3216651,-0.46484417,0.3126103,0.90087354,-0.057268616
9,0.09,0.8352316,0.33379996,-0.51063955,0.4718934,0.892016,-0.05497787
10,0.09999999999999999,0.79126567,0.33941004,-0.50283426,0.66339964,0.8188649,-0.024129177
11,0.10999999999999999,0.7516902,0.3150184,-0.42984214,0.66339964,0.8188649,-0.024129177
12,0.11999999999999998,0.7618737,0.27940655,-0.4551485,1.2282972,0.7451029,0.4445572
13,0.12999999999999998,0.916334,0.21373199,-0.70619977,1.3567317,0.62781674,0.6220135
14,0.13999999999999999,0.9482261,0.1890964,-0.8620015,0.9540188,0.31535918,0.77366084
15,0.15,0.9482261,0.1890964,-0.8620015,0.50228393,0.3932445,0.8390234
16,0.16,0.9482261,0.1890964,-0.8620015,-0.054367006,0.5859725,0.67088276
17,0.17,1.2018384,0.32093337,-0.8026078,-0.43783766,0.65393126,0.39538252
18,0.18000000000000002,1.2215346,0.37453404,-0.55984974,-0.4448626,0.6608035,0.11759156
19,0.19000000000000003,1.3006856,0.389352,-0.4876504,-0.13041973,0.73563445,-0.12797627
20,0.20000000000000004,1.2999539,0.38002217,-0.50942,0.26007587,0.82634795,-0.60903263
21,0.21000000000000005,1.2002529,0.289834,-0.47667417,0.37934732,1.0231993,-0.9418015
22,0.22000000000000006,1.2002529,0.289834,-0.47667417,0.37934732,1.0231993,-0.9418015
23,0.23000000000000007,1.2002529,0.289834,-0.47667417,0.37934732,1.0231993,-0.9418015
24,0.24000000000000007,1.2002529,0.289834,-0.47667417,0.37934732,1.0231993,-0.9418015
25,0.25000000000000006,1.2002529,0.289834,-0.47667417,0.37934732,1.0231993,-0.9418015
26,0.26000000000000006,1.2002529,0.289834,-0.47667417,0.37934732,1.0231993,-0.9418015
27,0.2700000000000001,1.2002529,0.289834,-0.47667417,0.37934732,1.0231993,-0.9418015
28,0.2800000000000001,1.2002529,0.289834,-0.47667417,0.37934732,1.0231993,-0.9418015
29,0.2900000000000001,0.88334423,0.15256988,-0.7305914,0.0,0.0,0.0
30,0.3000000000000001,0.7406529,0.16250949,-0.5508858,-0.27748555,1.1023064,0.029932396
31,0.3100000000000001,0.8960279,0.27080846,-0.36111864,-0.20387627,0.9784534,0.17027868
32,0.3200000000000001,0.8960279,0.27080846,-0.36111864,-0.20387627,0.9784534,0.17027868
33,0.3300000000000001,1.042012,0.2821506,-0.28959006,-0.016340645,1.1319333,-0.043218717
34,0.34000000000000014,0.98908216,0.24580702,-0.2906267,0.027947085,1.3602442,-0.16493362
35,0.35000000000000014,0.8629772,0.1630583,-0.30599347,0.011759156,1.6455183,-0.28130344
36,0.36000000000000015,0.69290626,0.033416584,-0.2822116,-0.12156218,1.8219056,-0.12614368
37,0.37000000000000016,0.579668,-0.015488708,-0.28519958,-0.12156218,1.8219056,-0.12614368
38,0.38000000000000017,0.579668,-0.015488708,-0.28519958,-0.12156218,1.8219056,-0.12614368
39,0.3900000000000002,0.55863017,0.0046344167,-0.1911087,-0.6713409,1.5757269,0.76923203
40,0.4000000000000002,0.85559875,0.13323948,-0.031343292,-0.5488624,1.1137601,1.3799446
41,0.4100000000000002,1.0117663,0.20769504,-0.047258858,-0.5152648,1.118647,1.2896893
42,0.4200000000000002,1.0759774,0.2628202,-0.014635001,-0.52305335,1.2145529,1.0311406
43,0.4300000000000002,1.115248,0.31404272,0.072321296,-0.45478916,1.4315627,0.59513545
44,0.4400000000000002,1.1320173,0.34294683,0.08774903,-0.30787608,1.6113098,0.16584991
45,0.45000000000000023,1.2012286,0.3608747,0.07799236,-0.15393804,1.7153096,-0.31810808
46,0.46000000000000024,1.0489026,0.25788093,0.01536675,-0.06505715,2.0237966,-0.8436049
47,0.47000000000000025,0.74821436,0.158058,-0.12921485,-0.21777347,2.2435553,-0.98364574
48,0.48000000000000026,0.5447879,0.103359684,-0.23196477,-0.54428095,2.0796907,-0.6646214
49,0.49000000000000027,0.48685768,0.10104248,-0.2373919,-0.7673995,1.7250835,-0.16050485
50,0.5000000000000002,0.4985047,0.13909347,-0.2508683,-0.88147855,0.98837996,0.6088799
51,0.5100000000000002,0.62832934,0.19751152,-0.20641449,-0.83260936,0.19868392,1.2351695
52,0.5200000000000002,0.8848077,0.26001516,-0.20415826,-0.6252206,-0.79504114,1.8362609
53,0.5300000000000002,1.1110405,0.3389222,-0.21068303,-0.20463985,-2.05434,1.9604193
54,0.5400000000000003,1.3041614,0.18007149,-0.1214705,-0.056199603,-1.9011654,1.712408
55,0.5500000000000003,1.138542,0.041953668,-0.15214302,-0.13607024,-1.2599095,1.5428929
56,0.5600000000000003,1.0751847,-0.012256813,-0.2183664,-0.3556763,-0.68401635,1.4753923
57,0.5700000000000003,1.1643362,-0.11336028,-0.30007848,-0.5823073,-0.1740966,1.4437801
58,0.5800000000000003,1.2932462,-0.25952733,-0.38471758,-0.9271407,0.21151209,1.2687671
59,0.5900000000000003,1.3631283,-0.37410718,-0.37965629,-1.2519683,0.1142318,1.2096659
60,0.6000000000000003,1.3631283,-0.37410718,-0.37965629,-1.5311338,-0.24022275,1.2399037
61,0.6100000000000003,1.3608111,-0.5207011,0.09287128,-1.5885551,-1.0057896,1.3674219
62,0.6200000000000003,1.3009906,-0.57527745,0.5061881,-1.2901474,-1.7687603,1.6268868
63,0.6300000000000003,1.3028198,-0.6472329,0.70784616,-0.8856019,-2.2956316,1.8335121
64,0.6400000000000003,1.2126317,-0.90194285,0.95023835,-0.4240932,-2.525317,2.1945333
65,0.6500000000000004,1.197082,-1.0856731,0.8208406,-0.38240165,-2.321746,2.5439484
66,0.6600000000000004,1.267635,-1.2494022,0.6817471,-0.981355,-1.8516853,2.7375927
67,0.6700000000000004,1.3861785,-1.32898,0.8700507,-1.6085609,-1.4773777,2.6734517
68,0.6800000000000004,1.4003866,-1.2906241,1.2401333,-2.9196305,-0.6806566,2.326633
69,0.6900000000000004,1.4556336,-1.2048874,1.7161976,-3.5433238,-0.27855456,2.039679
70,0.7000000000000004,1.4148387,-1.0489026,2.1027446,-3.8973203,-0.00061086525,1.6840028
71,0.7100000000000004,1.507527,-0.14220342,2.8848636,-3.9147298,0.05390886,1.4388931
72,0.7200000000000004,1.5356385,0.3170307,2.8732164,-3.6241107,-0.01695151,1.0618365
73,0.7300000000000004,1.2032409,0.61832875,2.7901628,-1.7208074,0.20479257,-0.6348417
74,0.7400000000000004,1.2032409,0.61832875,2.7901628,-0.8553641,0.26725355,-0.8168796
75,0.7500000000000004,0.6443059,0.4633807,2.222142,0.2863431,0.4999932,-0.29077184
76,0.7600000000000005,0.7182126,0.14238635,1.8369974,1.181108,0.29779682,0.30298916
77,0.7700000000000005,0.96310496,-0.4191098,1.214766,2.1314616,-0.12980886,0.8918633
78,0.7800000000000005,1.311418,-0.90115017,0.5332019,2.5486825,-0.4098906,1.1391109
79,0.7900000000000005,1.6546698,-1.1114674,-0.040673107,2.3284657,-0.47876564,0.97035944
80,0.8000000000000005,1.8924885,-1.1303098,-0.4250248,1.404532,-0.6444628,0.20799962
81,0.8100000000000005,1.8924885,-1.1303098,-0.4250248,0.45952338,-0.56382865,-0.6461427
82,0.8200000000000005,1.7703472,-0.79626596,-0.0010366458,-0.4476115,-0.33444872,-1.6522378
83,0.8300000000000005,1.662353,-0.7179077,0.17775428,-0.64828074,-0.2958115,-1.9631681
84,0.8400000000000005,1.308613,-0.6537577,0.60448647,-0.6533204,-0.28802297,-2.3510675
85,0.8500000000000005,1.308613,-0.6537577,0.60448647,-0.6533204,-0.28802297,-2.3510675
86,0.8600000000000005,1.308613,-0.6537577,0.60448647,-0.3061962,-0.5882632,-1.4350752
87,0.8700000000000006,1.0953687,-0.4499653,0.6209509,-0.27198774,-0.6924158,-1.0612257
88,0.8800000000000006,1.3197721,-0.3427639,0.6399154,-0.2837469,-0.50686544,-0.96791595
89,0.8900000000000006,1.4162412,-0.3319706,0.6319881,-0.28038713,-0.34101552,-1.1459832
90,0.9000000000000006,1.5471635,-0.3699606,0.52997,-0.32513303,-0.21242839,-1.3901765
91,0.9100000000000006,1.4875258,-0.32276276,0.46789315,-0.38423425,-0.22266038,-1.5325081
92,0.9200000000000006,1.4875258,-0.32276276,0.46789315,-0.4729624,-0.35170567,-1.7037032
93,0.9300000000000006,1.0834779,-0.24391668,0.7625445,-0.28527406,-0.6030767,-1.6244434
94,0.9400000000000006,0.994997,-0.22312276,0.7268107,-0.05589417,-0.65500027,-1.4159856
95,0.9500000000000006,0.9460308,-0.22934265,0.55393475,0.17516561,-0.6872234,-1.0768027
96,0.9600000000000006,0.9460308,-0.22934265,0.55393475,0.17516561,-0.6872234,-1.0768027
97,0.9700000000000006,0.94292086,-0.22312276,0.52064013,0.19440787,-0.6918049,-1.0056369
98,0.9800000000000006,1.1171994,-0.1753151,0.5140544,0.074067414,-0.5830709,-0.474795
99,0.9900000000000007,1.1440911,-0.14726469,0.5397876,0.08506299,-0.57696223,-0.47708577
100,1.0000000000000007,1.1543967,-0.1428132,0.5330189,0.16371189,-0.59483004,-0.49739704
101,1.0100000000000007,1.1406153,-0.10610375,0.47197875,0.23411411,-0.6713409,-0.5027421
102,1.0200000000000007,1.1428716,-0.1203119,0.447831,0.22602014,-0.7334964,-0.5001459
103,1.0300000000000007,1.1600677,-0.1299466,0.44276974,0.1956296,-0.7435757,-0.5186246
104,1.0400000000000007,1.1784225,-0.12634884,0.45557535,0.13576481,-0.7330383,-0.5655085
105,1.0500000000000007,1.2220225,-0.11122601,0.5264941,0.12614368,-0.6808093,-0.66614854
106,1.0600000000000007,1.1930574,-0.050063897,0.51131034,0.19272798,-0.5902485,-0.853226
107,1.0700000000000007,1.1423227,-0.04988096,0.5102737,0.2640465,-0.52656585,-0.9766208
108,1.0800000000000007,0.9877406,-0.06591848,0.37886357,0.36346483,-0.25289822,-1.1704178
109,1.0900000000000007,0.8850516,-0.095615335,0.2836141,0.30192015,-0.015271631,-1.223105
110,1.1000000000000008,0.7415067,-0.14421573,0.43484247,0.18112154,-0.064599,-1.0242683
111,1.1100000000000008,0.7415067,-0.14421573,0.43484247,0.18112154,-0.064599,-1.0242683
112,1.1200000000000008,0.7147368,-0.17244908,0.34916672,0.4448626,-0.60139686,-0.39767328
113,1.1300000000000008,0.7028459,-0.18818171,0.18013246,0.4448626,-0.60139686,-0.39767328
114,1.1400000000000008,0.77474034,-0.17342475,0.24794129,0.25030205,-0.66446865,-0.13561209
115,1.1500000000000008,0.7973026,-0.08396832,0.42343935,-0.17867808,-0.5401576,-0.04841107
116,1.1600000000000008,0.7973026,-0.08396832,0.42343935,-0.17867808,-0.5401576,-0.04841107
117,1.1700000000000008,0.8750511,0.01841571,0.43856218,0.18524489,0.14737125,-0.5554292
118,1.1800000000000008,0.7969977,0.025367333,0.3392271,0.30879238,0.4344779,-0.88239485
119,1.1900000000000008,0.76016635,0.0,0.38648596,0.3491095,0.42103887,-1.0619892
120,1.2000000000000008,0.70418745,0.0010366458,0.37563166,0.5163339,0.08933904,-0.9992228
121,1.2100000000000009,0.67888105,-0.099457026,0.2338551,0.8135198,-0.2677117,-0.80664754
122,1.2200000000000009,0.6422936,-0.14006914,0.11457986,0.8868236,-0.7611381,-0.54718256
123,1.2300000000000009,0.61424315,-0.17287594,0.11226265,0.7302894,-1.2461652,-0.17180584
124,1.2400000000000009,0.62845135,-0.16147284,0.14885014,0.52732944,-1.3301591,0.064599
125,1.2500000000000009,0.67747855,-0.08994427,0.32093337,0.28099802,-0.85062987,0.096516706
126,1.260000000000001,0.67747855,-0.08994427,0.32093337,0.13973543,-0.31856623,-0.12797627
127,1.270000000000001,0.79370487,0.15665549,0.5491174,0.20845777,0.11224649,-0.49754974
128,1.280000000000001,0.86584324,0.18708408,0.47734493,0.6617198,0.17195857,-0.788627
129,1.290000000000001,0.8829783,0.109335646,0.07250423,1.2212723,-0.4111123,-1.2157745
130,1.300000000000001,0.82925564,0.043051295,0.022135438,1.2212723,-0.4111123,-1.2157745
131,1.310000000000001,0.7566295,-0.020610958,0.06213777,1.0477866,-1.0969613,-1.2371548
132,1.320000000000001,0.59558356,-0.06738198,0.2087317,1.0044152,-1.1835514,-1.0548116
133,1.330000000000001,0.47289345,-0.021830542,0.36483836,1.0044152,-1.1835514,-1.0548116
134,1.340000000000001,0.47289345,-0.021830542,0.36483836,1.0044152,-1.1835514,-1.0548116
135,1.350000000000001,0.49838275,0.026586918,0.22367159,1.3272575,-0.39950588,-0.50793445
136,1.360000000000001,0.7337623,0.078785084,-0.20001167,1.093296,-0.22770002,-0.54321194
137,1.370000000000001,0.77589893,0.09018819,-0.22556195,0.7545713,-0.05787948,-0.6597345
138,1.380000000000001,0.77589893,0.09018819,-0.22556195,0.7545713,-0.05787948,-0.6597345
139,1.390000000000001,0.72333485,0.06726002,-0.26964986,0.118202426,0.4465425,-1.0047206
140,1.400000000000001,0.7108951,0.05286894,-0.33349505,-0.054367006,0.4905248,-1.0720685
141,1.410000000000001,0.6594287,0.05232013,-0.40612125,-0.43783766,0.12675454,-1.0192287
142,1.420000000000001,0.5363118,0.063967146,-0.18525472,-0.6072,-0.4071417,-0.6815729
143,1.430000000000001,0.5363118,0.063967146,-0.18525472,-0.40378192,-0.69058317,-0.11636983
144,1.440000000000001,0.44612357,0.16165577,0.20104831,-0.036651913,-0.8315403,0.34162638
145,1.450000000000001,0.5608254,0.20464608,0.1636071,0.35903606,-0.9578367,0.7189884
146,1.460000000000001,0.67272216,0.19891405,-0.013049542,0.62995476,-1.0241156,0.9656252
147,1.470000000000001,0.8088887,0.20812188,-0.13604453,0.7060075,-0.93202764,1.0341948
148,1.480000000000001,0.8841979,0.2133661,-0.3137378,0.64904433,-0.7153232,0.85918194
149,1.490000000000001,0.8583427,0.21470766,-0.45825842,0.23762658,0.20845777,0.03436117
150,1.500000000000001,0.78443605,0.2206836,-0.43081784,-0.04520403,0.42103887,-0.24846944
151,1.5100000000000011,0.78443605,0.2206836,-0.43081784,-0.04520403,0.42103887,-0.24846944
152,1.5200000000000011,0.69473565,0.23489174,-0.2432459,-0.23197608,0.4098906,-0.34865135
153,1.5300000000000011,0.71266353,0.2116587,-0.2174517,0.015577064,-0.08979719,-0.13576481
154,1.5400000000000011,0.7213836,0.2057437,-0.2558076,0.015577064,-0.08979719,-0.13576481
155,1.5500000000000012,0.71717596,0.2022679,-0.2733696,0.2938262,-0.5662721,0.032986723
156,1.5600000000000012,0.6669901,0.18458393,-0.21123183,0.366061,-0.59864795,0.09850202
157,1.5700000000000012,0.62332904,0.17324181,-0.17793721,0.47998735,-0.50747633,0.16493362
158,1.5800000000000012,0.6209509,0.15976542,-0.27379647,0.59864795,-0.23319781,0.25259277
159,1.5900000000000012,0.64826953,0.15519199,-0.37581462,0.5288566,-0.08597928,0.28328875
160,1.6000000000000012,0.66711205,0.14738666,-0.4047797,0.3295618,0.027488936,0.2669481
161,1.6100000000000012,0.66711205,0.14738666,-0.4047797,0.2312125,0.08307768,0.24770586
162,1.6200000000000012,0.6563188,0.17348573,-0.31355488,0.20250183,0.18035796,0.20922135
163,1.6300000000000012,0.6465011,0.1595215,-0.3934376,0.23411411,0.22204952,0.1957823
164,1.6400000000000012,0.6266829,0.15885073,-0.41112155,0.22128594,0.12690726,0.21685717
165,1.6500000000000012,0.61223084,0.16470474,-0.38355896,0.19547687,-0.14034629,0.38056904
166,1.6600000000000013,0.64095205,0.1624485,-0.3808149,0.21960606,-0.3791946,0.5542075
167,1.6700000000000013,0.64095205,0.1624485,-0.3808149,0.27214047,-0.66782844,0.74036866
168,1.6800000000000013,0.6507697,0.12793429,-0.3637407,0.27214047,-0.66782844,0.74036866
169,1.6900000000000013,0.63387847,0.12842213,-0.33026317,0.29565877,-0.77854776,0.84742284
170,1.7000000000000013,0.6517453,0.17122951,-0.24050182,0.4934264,-0.656222,0.9973902
171,1.7100000000000013,0.7356527,0.17610784,-0.25092927,0.7115053,-0.23640485,0.8503244
172,1.7200000000000013,0.7923023,0.16604628,-0.30428603,0.7846564,0.08597928,0.7075347
173,1.7300000000000013,0.8362683,0.14439867,-0.30117613,0.83016586,0.36667186,0.5158757
174,1.7400000000000013,0.8879787,0.16403395,-0.36569205,0.9072876,0.48655418,0.36774087
175,1.7500000000000013,0.97755706,0.15275282,-0.54936135,0.97524637,0.573297,0.15500705
176,1.7600000000000013,0.9091994,0.16031423,-0.64028126,0.904386,0.54565537,-0.05207626
177,1.7700000000000014,0.78016746,0.15476513,-0.6049743,0.8550586,0.48670688,-0.10720685
178,1.7800000000000014,0.670283,0.13159303,-0.4698445,0.9512699,0.5143485,-0.04550946
179,1.7900000000000014,0.670283,0.13159303,-0.4698445,0.9512699,0.5143485,-0.04550946
180,1.8000000000000014,0.5588131,0.07152857,-0.29623678,1.7295122,0.8321512,0.2846632
181,1.8100000000000014,0.59631526,-0.0028050416,-0.30227375,2.3125832,1.3122913,0.5138904
182,1.8200000000000014,0.59631526,-0.0028050416,-0.30227375,2.498897,1.7663169,0.52671856
183,1.8300000000000014,1.1163456,-0.004085604,-0.7882167,2.3904684,2.1363485,0.36056322
184,1.8400000000000014,1.6082035,0.09939604,-1.4999655,1.7857119,2.2369885,-0.03756821
185,1.8500000000000014,1.8504738,0.22281788,-1.9244416,0.84467393,1.8810068,-0.57787853
186,1.8600000000000014,1.7715058,0.26306412,-1.732601,-0.3912592,0.95310247,-1.2657127
187,1.8700000000000014,1.343737,0.083602436,-0.7685205,-0.30970868,0.19257528,-1.6401732
188,1.8800000000000014,0.9943873,0.05189327,-0.2672717,0.4335616,0.42913285,-1.6829338
189,1.8900000000000015,0.9943873,0.05189327,-0.2672717,0.4335616,0.42913285,-1.6829338
190,1.9000000000000015,0.8911496,0.1261659,-0.6181458,1.048703,1.1455251,-1.8263344
191,1.9100000000000015,0.78626543,0.08238286,-0.68247885,1.0464121,1.820073,-2.0958786
192,1.9200000000000015,0.5228354,0.0043295207,-0.6641851,0.21838433,2.9181032,-2.279291
193,1.9300000000000015,0.47606438,-0.002927,-0.71132195,0.21838433,2.9181032,-2.279291
194,1.9400000000000015,0.47319835,0.07713865,-0.6626606,-0.4437936,2.4381158,-1.3480269
195,1.9500000000000015,0.5311895,0.15208204,-0.36185038,-0.5572618,1.6633861,-0.60903263
196,1.9600000000000015,0.69973594,0.20452413,-0.28379703,-0.38988474,1.4367551,-0.25473082
197,1.9700000000000015,1.0760994,0.29294392,-0.49356538,-0.07192938,1.4645494,-0.19410244
198,1.9800000000000015,1.1577505,0.27404037,-0.6080233,-0.2930626,2.0289888,-0.713796
199,1.9900000000000015,1.1436642,0.21086596,-0.5250307,-0.539394,2.1905627,-0.8032878
200,2.0000000000000013,0.9857282,0.14488651,-0.28263843,-0.59391373,2.4927883,-0.8782715
201,2.010000000000001,0.898772,0.14506944,-0.21330512,-0.5119051,2.5642595,-0.7641924
202,2.020000000000001,0.85675734,0.14415476,-0.25806385,-0.41538838,2.532342,-0.46135598
203,2.0300000000000007,0.86944103,0.15903367,-0.36288702,-0.5702427,2.3988678,-0.19868392
204,2.0400000000000005,0.8618796,0.16732684,-0.34410545,-0.89934635,2.198046,-0.0067195175
205,2.0500000000000003,0.85724515,0.21519548,-0.14635001,-1.0235047,1.6887369,0.30298916
206,2.06,1.3152596,0.26477155,-0.014695979,-0.872621,1.2021828,0.69989884
207,2.07,1.3152596,0.26477155,-0.014695979,-0.5129741,0.5531385,1.00075
208,2.0799999999999996,1.3690432,0.13000758,-0.050063897,-0.27168232,0.2302962,1.221425
209,2.0899999999999994,1.3301996,0.07732158,0.016464375,-0.42439863,0.1853976,1.2157745
210,2.099999999999999,1.3301996,0.07732158,0.016464375,-0.42439863,0.1853976,1.2157745
211,2.109999999999999,1.2158027,0.053051874,0.115555525,-0.60139686,0.49418998,1.1264355
212,2.1199999999999988,1.1176262,0.102140106,0.10957957,-0.786489,0.8773552,1.0638218
213,2.1299999999999986,0.96225125,0.18123008,0.14653294,-1.0884092,1.2084441,0.9210321
214,2.1399999999999983,0.9733495,0.28184572,0.34520307,-0.9407325,0.9007208,1.0065532
215,2.149999999999998,0.9733495,0.28184572,0.34520307,-0.9407325,0.9007208,1.0065532
216,2.159999999999998,1.117992,0.34136137,0.374656,0.11178834,0.7296785,0.55878896
217,2.1699999999999977,0.91237026,0.23013538,-0.014939896,0.11835514,0.70524395,0.50503284
218,2.1799999999999975,0.6667462,0.13604453,-0.010854292,-0.07238753,0.5123632,0.49602258
219,2.1899999999999973,0.47929627,0.025062438,0.08366342,-0.13103059,0.26099217,0.8049677
220,2.199999999999997,0.4861869,-0.045612417,0.07091877,-0.13103059,0.26099217,0.8049677
221,2.209999999999997,0.6325979,0.00042685418,-0.12744646,-0.049021937,0.19547687,1.5202909
222,2.2199999999999966,0.8943204,0.06823569,-0.3108718,-0.3303254,0.27565295,1.5474744
223,2.2299999999999964,1.0962834,0.093359105,-0.29599288,-0.59773165,0.35170567,1.3106114
224,2.239999999999996,1.293978,0.17671762,-0.07378479,-0.7684685,0.3387248,0.76159626
225,2.249999999999996,1.3863614,0.21464668,0.02414775,-0.5174029,0.26984972,0.23976462
226,2.259999999999996,1.5083196,0.1797056,-0.017074168,-0.23380867,0.35155296,-0.18325958
227,2.2699999999999956,1.4218513,0.08159013,-0.18635234,-0.12232576,0.42745295,-0.5510005
228,2.2799999999999954,1.1312245,-0.10915271,-0.3023957,-0.22052236,0.5045747,-0.7527387
229,2.289999999999995,1.1312245,-0.10915271,-0.3023957,-0.22052236,0.5045747,-0.7527387
230,2.299999999999995,0.61088926,-0.32709226,-0.24794129,-0.22052236,0.5045747,-0.7527387
231,2.3099999999999947,0.78772885,-0.34191018,-0.32977533,-0.8023715,0.39385536,0.2228131
232,2.3199999999999945,1.0026805,-0.32709226,-0.3887422,-1.2299771,-0.44730607,1.1191051
233,2.3299999999999943,1.232267,-0.2689791,-0.17659567,-1.5357152,-1.2910637,1.2954924
234,2.339999999999994,1.3016003,-0.25428313,0.2941635,-1.5357152,-1.2910637,1.2954924
235,2.349999999999994,1.299771,-0.28404096,0.4538679,-1.1400273,-2.676506,1.2389874
236,2.3599999999999937,1.1933622,-0.4989925,0.6479037,-1.1400273,-2.676506,1.2389874
237,2.3699999999999934,1.1933622,-0.4989925,0.6479037,-0.301462,-1.9413297,1.1824824
238,2.3799999999999932,0.749312,-0.9000525,0.5923516,-0.93691456,-1.033584,1.2212723
239,2.389999999999993,0.7653495,-1.0665866,0.74705577,-1.9124664,-0.3315471,1.4115568
240,2.399999999999993,0.78492385,-1.1952527,1.0178642,-2.588847,-0.2863431,1.81091
241,2.4099999999999926,0.78785086,-1.2096437,1.2242178,-2.8609874,-0.56199604,2.2041545
242,2.4199999999999924,1.0336579,-1.1509818,1.7201004,-3.2469015,-0.88422745,3.0447052
243,2.429999999999992,1.4414866,-1.012681,2.0981712,-3.3287575,-1.0126618,3.1609223
244,2.439999999999992,2.2989147,-0.45039213,2.3966033,-3.3444872,-0.99036527,2.6836836
245,2.4499999999999917,2.2989147,-0.45039213,2.3966033,-3.4364223,-0.62858033,1.8203784
246,2.4599999999999915,2.3405023,-0.11842154,2.3290992,-3.638619,0.0065668016,0.5748242
247,2.4699999999999913,1.9684684,0.18153499,2.2130558,-3.9452732,0.9262244,-0.9601275
248,2.479999999999991,1.5881414,0.3614845,2.3629427,-3.8107302,1.2687671,-1.7913623
249,2.489999999999991,1.1922036,0.55460554,2.56082,-2.7997482,1.3417655,-2.1450534
250,2.4999999999999907,1.1263462,0.5693015,2.405994,-1.536326,1.1704178,-2.0054705
251,2.5099999999999905,1.1809226,0.4724056,2.0237157,-0.34987307,0.7304421,-1.7515033
252,2.5199999999999902,1.2334256,-0.30824968,1.3695922,1.4274393,-0.45677447,-1.6387987
253,2.52999999999999,1.1053693,-0.73546976,0.91700476,1.9049833,-0.58078015,-1.6548339
254,2.53999999999999,1.0060953,-0.960239,0.48941877,1.9662225,-0.66446865,-1.539075
255,2.5499999999999896,1.0060953,-0.960239,0.48941877,1.6982054,-0.78038037,-1.2380711
256,2.5599999999999894,0.9258467,-1.0607935,0.13506886,1.6982054,-0.78038037,-1.2380711
257,2.569999999999989,0.88785666,-0.87700236,-0.07658983,0.25045475,-0.3182608,-0.4098906
258,2.579999999999989,0.9987168,-0.61180395,0.33886123,-0.4269948,-0.07666359,-0.086132
259,2.5899999999999888,1.2158636,-0.43514732,0.60107166,-0.5864306,-0.016340645,0.08155051
260,2.5999999999999885,1.3873371,-0.33825144,0.7029678,-0.47036624,-0.15363261,0.08277224
261,2.6099999999999883,1.531065,-0.22056165,0.79016805,-0.21945333,-0.4622723,-0.094225965
262,2.619999999999988,1.5792994,-0.17244908,0.80712026,0.028099801,-0.68951416,-0.45265114
263,2.629999999999988,1.5553347,-0.18391317,0.77583796,0.18997909,-0.7452556,-0.81107634
264,2.6399999999999877,1.4633172,-0.21940304,0.6871133,0.27763826,-0.6733262,-1.2414309
265,2.6499999999999875,1.2547073,-0.28294334,0.5776557,0.21120666,-0.49220467,-1.42973
266,2.6599999999999873,1.1121991,-0.286785,0.5494833,0.013133603,-0.2078469,-1.4492778
267,2.669999999999987,0.9773741,-0.27928457,0.5733261,-0.10949759,-0.069485925,-1.3820826
268,2.679999999999987,0.80462015,-0.28757775,0.74912906,-0.17287487,-0.05589417,-1.0351112
269,2.6899999999999866,0.91651684,-0.2675156,0.70467526,0.3202461,-0.6637051,0.051923547
270,2.6999999999999864,1.0736603,-0.23513566,0.6196093,0.3202461,-0.6637051,0.051923547
271,2.709999999999986,1.0736603,-0.23513566,0.6196093,0.6252206,-1.1030699,0.43004912
272,2.719999999999986,1.3478225,-0.15781409,0.50002915,0.63132924,-1.1753048,0.31047225
273,2.7299999999999858,1.3478225,-0.15781409,0.50002915,0.63132924,-1.1753048,0.31047225
274,2.7399999999999856,1.4046552,-0.14220342,0.4112435,0.4885395,-0.93752545,-0.0926988
275,2.7499999999999853,1.3012345,-0.1525089,0.4235003,0.087201014,-0.17852537,-0.9363037
276,2.759999999999985,1.1747028,-0.1624485,0.30928633,-0.12415836,0.37003163,-1.3326025
277,2.769999999999985,1.0589032,-0.20312162,0.31251824,-0.35888332,0.79412484,-1.5621351
278,2.7799999999999847,1.0589032,-0.20312162,0.31251824,-0.6059783,0.8205447,-1.6458237
279,2.7899999999999845,0.8462079,-0.16689998,0.7548611,-0.6059783,0.8205447,-1.6458237
280,2.7999999999999843,0.80468106,-0.18074225,0.7746184,-0.02443461,0.022143865,-0.97203934
281,2.809999999999984,0.8161452,-0.17311986,0.54850763,0.5795584,-0.77014834,-0.3827071
282,2.819999999999984,0.86590415,-0.14513041,0.37764397,0.79626286,-1.2234104,0.023060163
283,2.8299999999999836,0.9492627,-0.12549512,0.26367393,0.7441866,-1.4419475,0.2180789
284,2.8399999999999834,1.0556713,-0.079333894,0.16915621,0.38652498,-1.1259774,0.0053450707
285,2.849999999999983,1.0690258,-0.067625895,0.14378887,0.03023783,-0.48823404,-0.452193
286,2.859999999999983,1.042012,-0.07695571,0.17385161,-0.4111123,0.3222314,-1.0296134
287,2.869999999999983,0.9084677,-0.059759583,0.45838037,-0.8885035,1.0896308,-1.6560557
288,2.8799999999999826,0.7683375,-0.011951917,0.5996691,-0.58551437,1.4146112,-1.9381227
289,2.8899999999999824,0.6570505,-0.05329579,0.5420438,-0.58551437,1.4146112,-1.9381227
290,2.899999999999982,0.6570505,-0.05329579,0.5420438,0.31429017,0.35811976,-1.3164146
291,2.909999999999982,0.66449,-0.052746978,0.3822784,0.537256,-0.7099781,-0.7466301
292,2.9199999999999817,0.711383,-0.065491624,0.13287361,0.537256,-0.7099781,-0.7466301
293,2.9299999999999815,0.67546624,-0.07079682,0.21641506,0.26236662,-2.238363,0.26358834
294,2.9399999999999813,0.67546624,-0.07079682,0.21641506,0.26236662,-2.238363,0.26358834
295,2.949999999999981,0.77175236,0.068479605,0.45496556,0.22266038,-2.0039434,0.4813618
296,2.959999999999981,0.84883,0.09360302,0.23562351,0.2835942,-0.8153524,0.009468411
297,2.9699999999999807,0.85755,0.07488242,0.15311868,-0.025350908,-0.12721269,-0.41493022
298,2.9799999999999804,0.81120586,0.17086363,0.39410836,-0.48899764,0.31581733,-0.89675015
299,2.9899999999999802,0.77974063,0.20921952,0.5512517,-0.3828598,0.3930918,-1.1264355
300,2.99999999999998,0.77974063,0.20921952,0.5512517,-0.3828598,0.3930918,-1.1264355
301,3.00999999999998,0.77974063,0.20921952,0.5512517,-0.3828598,0.3930918,-1.1264355
302,3.0199999999999796,0.67388076,0.10451829,0.02713573,0.42256603,-0.47326785,-1.1348349
303,3.0299999999999794,0.5936322,0.023355022,-0.042868353,-0.005497787,-1.1736249,-0.7713701
304,3.039999999999979,0.43959883,-0.010488417,0.17336378,-0.29794952,-1.528843,-0.3472769
305,3.049999999999979,0.29513916,0.0005488125,0.38325405,-0.3481932,-1.3674219,0.054367006
306,3.0599999999999787,0.25031948,0.00804925,0.37929043,-0.25473082,-0.7863363,0.50518554
307,3.0699999999999785,0.38422972,0.053478733,0.31428665,-0.24480425,-0.3306308,0.71868294
308,3.0799999999999783,0.8070593,0.36160645,0.45216054,0.30405816,-0.321926,0.8885035
309,3.089999999999978,0.8070593,0.36160645,0.45216054,0.30405816,-0.321926,0.8885035
310,3.099999999999978,1.0411583,0.34941062,0.2997126,0.8539896,-0.4251622,0.624457
311,3.1099999999999777,1.1320783,0.33495858,-0.112445585,1.0894781,-0.8428413,-0.5369505
312,3.1199999999999775,0.96651983,0.19263318,-0.09677394,0.90056807,-0.9460775,-0.99280876
313,3.1299999999999772,0.96651983,0.19263318,-0.09677394,0.90056807,-0.9460775,-0.99280876
314,3.139999999999977,0.49606553,0.13061738,0.0006707709,0.68569624,-0.6400341,-1.098183
315,3.149999999999977,0.33465368,0.11165286,0.020732917,0.6768387,-0.36254853,-0.7825184
316,3.1599999999999766,0.31160355,0.098725274,-0.007622396,0.7255552,-0.09193522,-0.46410486
317,3.1699999999999764,0.38916904,0.09598121,-0.109640546,0.7153232,0.15760323,-0.09330966
318,3.179999999999976,0.4987486,0.11079915,-0.11067719,0.63514715,0.20372356,0.14095716
319,3.189999999999976,0.62149966,0.15647253,-0.079333894,0.61391956,0.11484267,0.34300083
320,3.1999999999999758,0.7449825,0.18830366,-0.115006715,0.73960507,-0.05879578,0.44241914
321,3.2099999999999755,0.81529146,0.2245253,-0.20245083,0.84620106,-0.21792617,0.44119743
322,3.2199999999999753,0.85352546,0.24544115,-0.28227258,0.8881981,-0.37400225,0.37980548
323,3.229999999999975,0.85315955,0.22190319,-0.33556834,0.86529064,-0.49403727,0.25167647
324,3.239999999999975,0.8085838,0.2040363,-0.34995946,0.77686787,-0.5374087,0.13255776
325,3.2499999999999747,0.8085838,0.2040363,-0.34995946,0.77686787,-0.5374087,0.13255776
326,3.2599999999999745,0.64375705,0.13702019,-0.25281963,0.5346598,-0.4364632,0.14905111
327,3.2699999999999743,0.59351027,0.1367153,-0.10079856,0.56138515,-0.2003638,0.3145956
328,3.279999999999974,0.62399983,0.14854525,-0.12988563,0.7119634,-0.099265605,0.4092797
329,3.289999999999974,0.7341892,0.15110639,-0.28715092,0.7903069,0.045356743,0.43982297
330,3.2999999999999736,0.7341892,0.15110639,-0.28715092,0.7903069,0.045356743,0.43982297
331,3.3099999999999734,0.8230359,0.17726645,-0.3626431,0.68416905,0.1919644,0.15836681
332,3.319999999999973,0.8230359,0.17726645,-0.3626431,0.68416905,0.1919644,0.15836681
333,3.329999999999973,0.6897963,0.07616298,-0.33349505,0.7171558,0.12721269,0.052381694
334,3.3399999999999728,0.5810095,0.010671355,-0.33422682,0.76831573,-0.015118915,0.09010262
335,3.3499999999999726,0.54612947,-0.018842563,-0.33910516,0.7154759,-0.29443705,0.47250426
336,3.3599999999999723,0.52289635,-0.04317325,-0.29080966,0.60246587,-0.47769663,0.7612908
337,3.369999999999972,0.5410682,-0.0019513334,-0.23556253,0.5479461,-0.58032197,0.99387777
338,3.379999999999972,0.5410682,-0.0019513334,-0.23556253,0.5479461,-0.58032197,0.99387777
339,3.3899999999999717,0.7993759,0.07896802,-0.2783089,0.51083606,-0.5190827,1.2012665
340,3.3999999999999715,0.87846595,0.13305654,-0.27477214,0.4476115,-0.4868596,1.0760391
341,3.4099999999999713,0.95115304,0.15470415,-0.19586508,0.45570546,-0.40530908,0.82619524
342,3.419999999999971,0.98737466,0.1516552,-0.15696037,0.57635134,-0.2695443,0.5707009
343,3.429999999999971,0.96401966,0.09781059,-0.18190086,0.77091193,0.0070249503,0.22937989
344,3.4399999999999706,0.9140168,0.067625895,-0.23025733,0.893085,0.2576324,-0.042455133
345,3.4499999999999704,0.8330974,0.016708292,-0.30306646,0.9140071,0.5138904,-0.1656972
346,3.45999999999997,0.7443117,0.010000584,-0.3852054,0.8727737,0.82359904,-0.23335053
347,3.46999999999997,0.7097975,0.025794188,-0.409658,0.8732319,0.89919364,-0.21395555
348,3.47999999999997,0.78236276,0.06372323,-0.57363105,0.9104946,0.98731095,-0.1994475
349,3.4899999999999696,0.79108274,0.11701902,-0.54783684,0.9104946,0.98731095,-0.1994475
350,3.4999999999999694,0.790412,0.10232304,-0.42197582,0.8524625,0.94791013,-0.2657264
351,3.509999999999969,0.790412,0.10232304,-0.42197582,0.9289733,0.92255926,-0.3471242
352,3.519999999999969,0.7739476,0.050734665,-0.50338304,1.2657127,1.1601858,-0.42302418
353,3.5299999999999687,0.7739476,0.050734665,-0.50338304,1.2657127,1.1601858,-0.42302418
354,3.5399999999999685,0.6889427,0.021098793,-0.4663077,1.1560625,1.4805846,-0.3210097
355,3.5499999999999683,0.6889427,0.021098793,-0.4663077,1.0719157,1.8012888,-0.16875152
356,3.559999999999968,0.9348716,0.06158896,-0.7660203,0.8188649,1.890017,-0.17440203
357,3.569999999999968,0.9737763,0.09415183,-0.723152,0.52183163,1.8393153,-0.21639901
358,3.5799999999999677,0.99847287,0.083175585,-0.5511907,0.38805214,1.8872682,-0.21746802
359,3.5899999999999674,1.0431706,0.100859545,-0.45057508,0.54351735,1.9040669,-0.22876903
360,3.5999999999999672,1.1530551,0.12543415,-0.436184,0.82833326,1.9020816,-0.32360587
361,3.609999999999967,1.4995997,0.1445816,-0.7428482,0.93492925,1.9914207,-0.64996064
362,3.619999999999967,1.5789336,0.18714507,-0.85712314,0.79611015,2.0094411,-1.0178542
363,3.6299999999999666,1.4554508,0.17488825,-0.78022844,0.42531493,2.0599904,-1.5795448
364,3.6399999999999664,1.2988563,0.08659042,-0.66863656,0.2941316,2.0709858,-1.7823521
365,3.649999999999966,1.2988563,0.08659042,-0.66863656,0.29733866,2.0074558,-1.8138117
366,3.659999999999966,1.1381152,0.087992944,-0.6785152,0.1301143,1.6769779,-1.7131716
367,3.6699999999999657,1.0000583,0.050063897,-0.5478978,-0.33841935,0.98807454,-0.9254609
368,3.6799999999999655,0.9192609,0.07988271,-0.37410718,-0.33841935,0.98807454,-0.9254609
369,3.6899999999999653,0.95487285,0.14378887,-0.2697718,-0.36728272,0.47418416,-0.119729586
370,3.699999999999965,1.0963445,0.25257573,-0.19806033,-0.36728272,0.47418416,-0.119729586
371,3.709999999999965,1.4046552,0.39868182,-0.2128173,-0.2350304,0.35643986,-0.1881465
372,3.7199999999999647,1.4161192,0.39788908,-0.18592548,-0.20570888,0.34254268,-0.55741453
373,3.7299999999999645,1.4161192,0.39788908,-0.18592548,-0.20570888,0.34254268,-0.55741453
374,3.7399999999999642,1.4161192,0.39788908,-0.18592548,-0.08597928,0.31719178,-0.8917105
375,3.749999999999964,0.9560924,0.119397216,-0.13104422,-0.08628472,0.40286562,-0.7476991
376,3.759999999999964,0.7444947,0.039148625,-0.12683667,-0.19394971,0.47708577,-0.44776422
377,3.7699999999999636,0.6571725,0.005854,-0.14970386,-0.38896844,0.6414085,0.01282817
378,3.7799999999999634,0.6630875,0.0034758127,-0.15641156,-0.54092115,0.76052725,0.28527406
379,3.789999999999963,0.7388236,0.028172374,-0.18574256,-0.90667677,1.1701124,0.7021896
380,3.799999999999963,0.8144378,0.03561183,-0.14945993,-1.0995574,1.3326025,0.7870999
381,3.8099999999999627,0.82931674,0.110189356,0.124580435,-1.1586586,1.1374311,1.0800097
382,3.8199999999999625,1.1131747,0.17720546,0.26501545,-0.7851145,1.0155635,1.2651019
383,3.8299999999999623,1.1131747,0.17720546,0.26501545,-0.7851145,1.0155635,1.2651019
384,3.839999999999962,1.3842272,0.21586627,-0.055795938,-0.008857546,0.71685034,0.6815729
385,3.849999999999962,1.2126317,0.13470298,-0.10378654,-0.10293079,0.74265945,0.40194935
386,3.8599999999999617,0.92609066,0.054759294,-0.012134855,-0.31887165,0.8388707,0.3182608
387,3.8699999999999615,0.7012604,0.010610376,0.02414775,-0.36132678,1.0806206,0.56046885
388,3.8799999999999613,0.4619782,-0.06726002,-0.07915096,-0.3911065,1.1551461,0.73731434
389,3.889999999999961,0.4619782,-0.06726002,-0.07915096,-0.5030475,1.3245085,1.0160216
390,3.899999999999961,0.5828389,0.030611541,0.10701844,-0.7414377,1.4643967,1.5877914
391,3.9099999999999606,0.8505375,0.10732334,0.099518,-0.7414377,1.4643967,1.5877914
392,3.9199999999999604,1.156348,0.16037522,-0.04524654,-0.1966986,0.9987647,1.4144585
393,3.92999999999996,1.2534268,0.14763056,-0.097749606,-0.17180584,0.6394232,0.98792183
394,3.93999999999996,1.2534268,0.14763056,-0.097749606,-0.17180584,0.6394232,0.98792183
395,3.9499999999999598,0.9584705,0.033477563,-0.021769563,-0.32910365,0.39278635,0.76159626
396,3.9599999999999596,0.87663656,-0.02134271,-0.09598121,-0.29092458,0.37018433,0.9821186
397,3.9699999999999593,0.87663656,-0.02134271,-0.09598121,-0.29092458,0.37018433,0.9821186
398,3.979999999999959,0.930603,-0.024574606,-0.27965048,-0.48838675,0.34895676,1.4544702
399,3.989999999999959,1.0227425,-0.045856334,-0.2681864,-0.61300325,0.19456059,1.6035212
400,3.9999999999999587,1.1954966,-0.048783336,-0.28495565,-0.6759224,-0.018325957,1.538006
401,4.009999999999959,1.2252544,-0.045673396,-0.28910223,-0.6936375,-0.08078693,1.4989105
402,4.019999999999959,1.2252544,-0.045673396,-0.28910223,-0.6936375,-0.08078693,1.4989105
403,4.0299999999999585,1.5114297,-0.20671937,-0.14976484,-0.5914703,-1.4228579,0.6769914
404,4.039999999999958,1.0210961,-0.39069352,0.10585984,-0.5687156,-1.5230398,0.48533243
405,4.049999999999958,1.317211,-0.37416816,-0.023416,-0.62781674,-1.4074335,0.5739079
406,4.059999999999958,0.8746242,-0.55283713,0.12982465,-0.8353582,-0.57940567,0.8553641
407,4.069999999999958,0.8358415,-0.69272333,0.04439283,-0.8353582,-0.57940567,0.8553641
408,4.079999999999957,0.8946254,-0.7762648,0.018720604,-1.3926201,-0.21410827,0.97158116
409,4.089999999999957,1.0907953,-0.86462367,0.49496788,-2.3828325,-0.2826779,0.9263771
410,4.099999999999957,1.0907953,-0.86462367,0.49496788,-2.3828325,-0.2826779,0.9263771
411,4.109999999999957,1.1345174,-0.86614805,0.85700125,-2.482098,-0.7058548,0.8553641
412,4.119999999999957,1.2815992,-1.1291512,1.3743484,-2.2962425,-1.1050552,0.81046546
413,4.129999999999956,1.2076924,-1.3766047,1.4039234,-2.3553436,-1.3416128,1.1817188
414,4.139999999999956,1.2076924,-1.3766047,1.4039234,-2.3553436,-1.3416128,1.1817188
415,4.149999999999956,1.305625,-1.2801356,1.498746,-4.232685,-0.48441613,1.2092078
416,4.159999999999956,1.5648474,-0.86834335,2.2004333,-4.7025933,-0.024281893,0.7516697
417,4.1699999999999555,1.6116184,-0.5003341,2.4273977,-4.636467,0.46761733,-0.31429017
418,4.179999999999955,1.5089295,-0.26733267,2.4741688,-4.36845,0.8338311,-1.3539828
419,4.189999999999955,1.194216,0.006768687,2.5368555,-4.0504947,1.1942415,-2.3761132
420,4.199999999999955,0.98987484,0.1800105,2.5404532,-3.7388008,1.2092078,-2.6726882
421,4.209999999999955,0.98987484,0.1800105,2.5404532,-2.6369526,0.8368854,-2.5028677
422,4.2199999999999545,0.98987484,0.1800105,2.5404532,-2.6369526,0.8368854,-2.5028677
423,4.229999999999954,0.83571947,0.7112,2.5333793,-0.1742493,0.52763486,-1.7800614
424,4.239999999999954,1.0384142,0.143423,2.2899506,0.9972375,0.52549684,-1.6223054
425,4.249999999999954,1.01884,-0.7968757,0.93048114,2.2206478,0.17730364,-1.3341297
426,4.259999999999954,0.9820695,-1.1550674,-0.022562291,2.4094052,-0.9636399,-0.29336804
427,4.269999999999953,0.9820695,-1.1550674,-0.022562291,2.4094052,-0.9636399,-0.29336804
428,4.279999999999953,0.9820695,-1.1550674,-0.022562291,1.6586518,-1.4986051,0.16539176
429,4.289999999999953,1.1701293,-0.89041775,0.07402871,0.6247624,-1.649947,0.37110063
430,4.299999999999953,1.3549571,-0.37221682,0.64796466,-0.2680171,-0.8023715,-0.35369098
431,4.3099999999999525,1.3918495,-0.27532095,0.85230577,-0.22434026,-0.37201694,-0.84574294
432,4.319999999999952,1.4269125,-0.27916262,0.9526166,-0.021838432,-0.22831088,-1.0775663
433,4.329999999999952,1.4836842,-0.29574898,0.8446834,0.26328292,-0.20845777,-1.2690725
434,4.339999999999952,1.4836842,-0.29574898,0.8446834,0.26328292,-0.20845777,-1.2690725
435,4.349999999999952,1.3733119,-0.30233473,0.5200913,0.3904956,-0.42302418,-1.5769486
436,4.3599999999999515,1.2748915,-0.32745814,0.48289403,0.3051272,-0.4625777,-1.6053538
437,4.369999999999951,1.1154919,-0.28885832,0.5100298,0.12034045,-0.51251596,-1.5598444
438,4.379999999999951,0.9990217,-0.24696562,0.58143634,0.018784106,-0.46777007,-1.4323263
439,4.389999999999951,0.93889624,-0.2206836,0.6799177,-0.009315695,-0.3211624,-1.2226468
440,4.399999999999951,0.9183462,-0.2215983,0.74260426,0.02031127,-0.19608775,-1.0064005
441,4.40999999999995,0.9833501,-0.2025728,0.761081,0.087964594,-0.15745051,-0.6966918
442,4.41999999999995,1.1699463,-0.15665549,0.7399212,0.2191479,-0.32834008,-0.48838675
443,4.42999999999995,1.1699463,-0.15665549,0.7399212,0.5145013,-0.66431594,-0.28817567
444,4.43999999999995,1.2070217,-0.15726528,0.4908213,0.6899723,-0.9059132,-0.22113322
445,4.4499999999999496,1.1638484,-0.15013072,0.3655701,0.5884159,-1.0629056,-0.25060746
446,4.459999999999949,1.115187,-0.15860681,0.41295093,0.35308012,-0.9961685,-0.30497447
447,4.469999999999949,1.0134128,-0.13897152,0.4896627,-0.063682705,-0.2680171,-0.59559363
448,4.479999999999949,0.99213105,-0.13573962,0.46990547,-0.2191479,0.12751812,-0.7107417
449,4.489999999999949,0.99213105,-0.13573962,0.46990547,-0.2191479,0.12751812,-0.7107417
450,4.4999999999999485,1.0696965,-0.037990022,0.7072974,-0.5369505,0.31688634,-0.86529064
451,4.509999999999948,1.0696965,-0.037990022,0.7072974,-0.5369505,0.31688634,-0.86529064
452,4.519999999999948,1.0557323,0.014878917,0.804925,0.44959682,-0.45677447,-0.7506007
453,4.529999999999948,1.0020707,-0.012683666,0.679003,0.7863363,-0.644921,-0.70616025
454,4.539999999999948,0.8851736,-0.072138354,0.45685592,0.9289733,-0.83291477,-0.53801954
455,4.549999999999947,0.8851736,-0.072138354,0.45685592,0.9289733,-0.83291477,-0.53801954
456,4.559999999999947,0.71010244,-0.122446164,0.2953831,0.73792523,-0.79366666,-0.3914119
457,4.569999999999947,0.6562578,-0.13604453,0.27843088,0.16172658,-0.27931812,-0.1684461
458,4.579999999999947,0.679003,-0.1630583,0.30873755,-0.2950479,0.2939789,-0.105068825
459,4.589999999999947,0.76364213,-0.080919355,0.52734786,-0.6462954,0.4089743,-0.105374254
460,4.599999999999946,0.86797744,0.06786981,0.8316339,-0.36453384,0.21181752,-0.039095376
461,4.609999999999946,0.9216392,0.07646788,0.81888926,0.28053987,-0.07696902,-0.0009162979
462,4.619999999999946,0.9715201,0.03878275,0.526982,0.9062186,-0.37201694,0.00061086525
463,4.629999999999946,0.9842648,-0.008354146,0.1042134,1.1053606,-0.7492262,-0.02107485
464,4.6399999999999455,0.8875518,-0.06543065,-0.038355898,0.6808093,-1.0009027,-0.0030543262
465,4.649999999999945,0.8032176,-0.0600035,0.15421632,0.2405282,-1.1134546,0.011759156
466,4.659999999999945,0.8032176,-0.0600035,0.15421632,-0.043066,-1.0128145,0.0070249503
467,4.669999999999945,0.70644367,-0.06695513,0.2883095,-0.17394388,-0.5326745,-0.023823744
468,4.679999999999945,0.6665633,-0.09854234,0.24983165,-0.17394388,-0.5326745,-0.023823744
469,4.689999999999944,0.6665633,-0.09854234,0.24983165,-0.17394388,-0.5326745,-0.023823744
470,4.699999999999944,0.6665633,-0.09854234,0.24983165,-0.17394388,-0.5326745,-0.023823744
471,4.709999999999944,0.85535485,0.16574138,0.66802675,-0.67073005,0.21303925,0.073303826
472,4.719999999999944,1.0020707,0.16226557,0.5189327,0.4361578,-0.27366763,0.03756821
473,4.729999999999944,1.0267063,0.15421632,0.10018878,0.7449502,-0.86819226,-0.46929723
474,4.739999999999943,0.90060127,0.09226148,0.02561125,0.51159966,-0.93828905,-0.68218374
475,4.749999999999943,0.73071337,0.042197585,0.082077965,0.51159966,-0.93828905,-0.68218374
476,4.759999999999943,0.6045475,-0.007256521,0.10189619,0.24251351,-0.8695667,-0.84803367
477,4.769999999999943,0.4718568,-0.038355898,0.08579769,0.07376198,-0.44180828,-0.6197228
478,4.7799999999999425,0.4455748,-0.054576356,0.08866371,-0.048716504,-0.11881329,-0.41874814
479,4.789999999999942,0.47338125,0.0005488125,0.20428021,-0.15057829,0.04932737,-0.18020524
480,4.799999999999942,0.54850763,0.14964288,0.35520366,0.124769226,-0.10598512,0.07162395
481,4.809999999999942,0.75809306,0.18805976,0.2374529,0.52946746,-0.23014349,0.1469131
482,4.819999999999942,0.8835272,0.23989205,0.040246252,0.7695375,-0.46563202,0.04046982
483,4.8299999999999415,0.9206025,0.28989497,-0.09256637,0.7440339,-0.81153446,-0.17470746
484,4.839999999999941,0.7793747,0.23995303,-0.028050419,0.63361996,-0.96761054,-0.3643811
485,4.849999999999941,0.6433912,0.20025559,-0.005061271,0.56230146,-0.89888823,-0.6012441
486,4.859999999999941,0.51582277,0.158058,0.0039026667,0.58383447,-0.76052725,-0.48059824
487,4.869999999999941,0.4750887,0.118360564,0.010793312,0.61590487,-0.60994893,-0.3023783
488,4.87999999999994,0.50606614,0.06915038,-0.03506302,0.61590487,-0.60994893,-0.3023783
489,4.88999999999994,0.50606614,0.06915038,-0.03506302,0.57864213,-0.21410827,0.09941832
490,4.89999999999994,0.6122918,0.060247418,-0.12695862,0.57864213,-0.21410827,0.09941832
491,4.90999999999994,0.7365674,0.09994486,-0.14811839,0.3287982,-0.14950927,0.2125811
492,4.9199999999999395,0.7674228,0.1153116,-0.12366576,0.301462,-0.24984388,0.1957823
493,4.929999999999939,0.7829725,0.13439809,-0.13299556,0.2864958,-0.37201694,0.1863139
494,4.939999999999939,0.7710206,0.18348631,-0.12842213,0.27015516,-0.5870415,0.14309518
495,4.949999999999939,0.7710206,0.18348631,-0.12842213,0.321926,-0.61727935,0.124005646
496,4.959999999999939,0.6964431,0.16555844,-0.12445848,0.41584653,-0.5494733,0.10598512
497,4.9699999999999385,0.6390617,0.15135029,-0.17994952,0.46761733,-0.3051272,0.12843442
498,4.979999999999938,0.6341224,0.13226382,-0.20995127,0.4474588,-0.065973446,0.14446963
499,4.989999999999938,0.6541845,0.124580435,-0.21306121,0.40500367,0.17669277,0.16768251
500,4.999999999999938,0.7032117,0.14250831,-0.20245083,0.3830125,0.30604348,0.18295415
501,5.009999999999938,0.77089864,0.16476572,-0.20995127,0.4476115,0.28420505,0.06963864
502,5.019999999999937,0.7977904,0.18141302,-0.23086715,0.4476115,0.28420505,0.06963864
503,5.029999999999937,0.80138826,0.1925722,-0.25239277,0.4476115,0.28420505,0.06963864
504,5.039999999999937,0.80138826,0.1925722,-0.25239277,0.6198755,0.16905695,-0.1330159
505,5.049999999999937,0.6394885,0.15824094,-0.32477504,0.58123827,0.23365596,-0.09437868
506,5.0599999999999365,0.597169,0.11025034,-0.30751795,0.5305365,0.34697145,0.051618114
507,5.069999999999936,0.597169,0.11025034,-0.30751795,0.5305365,0.34697145,0.051618114
508,5.079999999999936,0.6721124,0.1293978,-0.25781992,0.62109727,0.43844852,0.35155296
509,5.089999999999936,0.77059376,0.12025091,-0.25281963,0.62109727,0.43844852,0.35155296
510,5.099999999999936,0.83181685,0.13512984,-0.2903828,0.8116872,0.55665094,0.30207285
511,5.1099999999999355,0.89291793,0.1539724,-0.3216651,0.8342892,0.5871942,0.16997325
512,5.119999999999935,0.9950581,0.15433827,-0.39374247,0.8258898,0.55741453,-0.028099801
513,5.129999999999935,0.96944684,0.1422644,-0.4591731,0.7484626,0.41386122,-0.21884248
514,5.139999999999935,0.8715143,0.13384928,-0.46149033,0.674548,0.1459968,-0.23411411
515,5.149999999999935,0.7454703,0.08244383,-0.45289227,0.6391178,-0.15409076,-0.056963183
516,5.159999999999934,0.69376,0.07030898,-0.48783335,0.59574634,-0.44944412,0.20570888
517,5.169999999999934,0.69376,0.07030898,-0.48783335,0.5149594,-0.5887214,0.3746131
518,5.179999999999934,0.6789421,0.11811664,-0.4471602,0.5149594,-0.5887214,0.3746131
519,5.189999999999934,0.722969,0.13860564,-0.23013538,0.39920044,-0.45738536,0.5164866
520,5.199999999999934,0.722969,0.13860564,-0.23013538,0.5723807,-0.1611157,0.47112983
521,5.209999999999933,0.7383357,0.14702077,-0.2110489,0.7312057,0.10354166,0.39278635
522,5.219999999999933,0.76614225,0.15299673,-0.21867129,1.2389874,1.3058772,-0.025045475
523,5.229999999999933,0.974813,0.11165286,-0.44215995,1.2389874,1.3058772,-0.025045475
524,5.239999999999933,0.93846935,0.06756492,-0.58771724,0.9045387,1.992337,-0.70646566
525,5.2499999999999325,0.93846935,0.06756492,-0.58771724,0.9045387,1.992337,-0.70646566
526,5.259999999999932,0.7452264,0.03597771,-0.34703246,0.93599826,2.223244,-0.71944654
527,5.269999999999932,0.73601854,0.042075627,-0.40618226,1.196685,2.2252293,-0.47678033
528,5.279999999999932,0.73601854,0.042075627,-0.40618226,1.196685,2.2252293,-0.47678033
529,5.289999999999932,0.77925277,0.11549455,-0.5347873,1.1191051,2.2117903,-0.17989981
530,5.299999999999931,0.889869,0.1750712,-0.5690576,0.8764389,2.1371121,-0.063682705
531,5.309999999999931,1.1146992,0.2183664,-0.7057119,0.537256,2.126422,-0.082924955
532,5.319999999999931,1.2232422,0.2912365,-0.6816251,0.0571159,2.001042,-0.3387248
533,5.329999999999931,1.2232422,0.2912365,-0.6816251,0.0571159,2.001042,-0.3387248
534,5.339999999999931,1.1362249,0.2001946,-0.3529474,-0.2602286,1.9373591,-0.6585127
535,5.34999999999993,1.1220167,0.178547,-0.23342825,-0.14004086,1.8747455,-0.59513545
536,5.35999999999993,1.2022043,0.1703758,-0.20818289,0.015271631,1.9443841,-0.44394633
537,5.36999999999993,1.2022043,0.1703758,-0.20818289,0.05757405,2.0131063,-0.39752057
538,5.37999999999993,1.3453834,0.28318727,-0.25928342,-0.009315695,2.1126773,-0.43493605
539,5.3899999999999295,1.3453834,0.28318727,-0.25928342,-0.06566802,2.1804836,-0.52488595
540,5.399999999999929,1.3445907,0.35898435,-0.3284338,-0.103847094,2.1971295,-0.72097373
541,5.409999999999929,1.2278765,0.3849005,-0.37038746,-0.19868392,2.064419,-0.87888235
542,5.419999999999929,1.0212182,0.34843495,-0.25068536,-0.31306845,1.4928019,-0.66553766
543,5.429999999999929,1.007071,0.3284338,-0.23495273,-0.34880406,0.46838093,0.06872234
544,5.4399999999999284,1.027316,0.30154198,-0.14525238,-0.34880406,0.46838093,0.06872234
545,5.449999999999928,1.126834,0.3199577,-0.06555261,-0.5352707,-0.5714644,0.8400924
546,5.459999999999928,1.2285473,0.37172902,0.06445498,-0.5352707,-0.5714644,0.8400924
547,5.469999999999928,1.2544025,0.38679087,0.15616766,-0.48472157,-0.8237518,0.91614515
548,5.479999999999928,1.2004359,0.33739772,0.21714681,-0.2454151,-0.13103059,0.35078937
549,5.489999999999927,1.1495793,0.32148215,0.19879209,-0.17959438,0.2669481,0.09514226
550,5.499999999999927,1.0878073,0.269284,0.1627534,-0.12156218,0.8524625,-0.3313944
551,5.509999999999927,1.0173764,0.21678093,0.17293692,-0.12156218,0.8524625,-0.3313944
552,5.519999999999927,0.82620674,0.04908823,0.0863465,-0.032223143,0.9992228,-0.5161811
553,5.5299999999999265,0.55533725,-0.00060979166,-0.0005488125,-0.0035124752,0.8071057,-0.14202617
554,5.539999999999926,0.55533725,-0.00060979166,-0.0005488125,-0.4503604,0.5357288,0.5707009
555,5.549999999999926,0.2093415,-0.25635642,0.24275808,-0.9042333,0.09850202,1.4761559
556,5.559999999999926,0.23934323,-0.21732976,0.48917487,-1.069625,-0.18081611,2.2530236
557,5.569999999999926,0.5345434,-0.09726177,0.7323598,-0.8016079,-0.4268421,3.0277536
558,5.5799999999999255,0.9334691,0.03079448,0.6875401,-0.35323283,-0.35063666,3.132975
559,5.589999999999925,1.2767818,0.13073933,0.5084443,-0.005497787,-0.11484267,2.648559
560,5.599999999999925,1.4658172,0.12171442,0.3764244,0.129198,0.39171734,1.368949
561,5.609999999999925,1.159031,-0.17501022,0.3784977,0.12293663,0.7199047,0.5539021
562,5.619999999999925,1.0121323,-0.22367159,0.3770952,0.12782355,1.2130257,-0.28603765
563,5.629999999999924,1.0121323,-0.22367159,0.3770952,0.12782355,1.2130257,-0.28603765
564,5.639999999999924,1.0121323,-0.22367159,0.3770952,0.12782355,1.2130257,-0.28603765
565,5.649999999999924,1.0121323,-0.22367159,0.3770952,0.12782355,1.2130257,-0.28603765
566,5.659999999999924,0.33349505,-0.22928166,0.39331564,0.12782355,1.2130257,-0.28603765
567,5.6699999999999235,0.7277254,-0.07293109,0.2086707,-0.14248432,2.1713204,0.8875872
568,5.679999999999923,0.9479211,0.035306938,0.10427438,-0.2759584,2.2898283,0.7089091
569,5.689999999999923,1.167873,0.117811754,0.042136606,-0.39003745,2.1003075,0.16584991
570,5.699999999999923,1.167873,0.117811754,0.042136606,-0.36025777,1.749518,-0.26816985
571,5.709999999999923,1.323065,0.050612707,-0.085614756,-0.3576616,1.2629639,-0.713796
572,5.7199999999999225,1.0677452,-0.11079915,-0.0954324,-0.42119157,0.9427178,-0.742354
573,5.729999999999922,0.89169836,-0.17769329,-0.09585925,-0.4813618,0.5571091,-0.42180246
574,5.739999999999922,0.81059605,-0.25190493,-0.13183697,-0.5047274,-0.09621128,0.23044892
575,5.749999999999922,0.87718534,-0.28855342,-0.13610551,-0.5225952,-0.6104071,0.82818055
576,5.759999999999922,1.100796,-0.23105007,-0.11165286,-0.6436992,-1.1290317,1.4656185
577,5.769999999999921,1.3473347,-0.16659509,-0.09049308,-0.7139487,-1.3087788,1.5564847
578,5.779999999999921,1.6305829,-0.07195542,-0.0059759584,-0.7687739,-1.4729488,1.314582
579,5.789999999999921,1.7907143,-0.015122834,0.08750511,-0.7496844,-1.5057828,0.6151413
580,5.799999999999921,1.794312,-0.054393414,0.1387276,-0.72250086,-1.5183055,-0.46486846
581,5.809999999999921,1.738455,-0.16507061,0.2336112,-0.7076874,-1.466382,-0.95554596
582,5.81999999999992,1.3043444,-0.4045358,0.25800288,-0.7302894,-1.1192578,-1.3205379
583,5.82999999999992,0.6650388,-0.6072915,0.11372615,-1.1065824,-0.47586402,-1.2741122
584,5.83999999999992,0.56509393,-0.6693683,0.40490165,-1.7982346,-0.39843684,-0.42730024
585,5.84999999999992,0.3954499,-0.69101596,0.8113888,-1.591304,-1.180497,0.41401392
586,5.8599999999999195,0.34410545,-0.7462021,1.0108516,-1.1948525,-1.7788396,1.0526736
587,5.869999999999919,0.34410545,-0.7462021,1.0108516,-1.1948525,-1.7788396,1.0526736
588,5.879999999999919,0.6071086,-1.1646411,0.7374211,-0.23258694,-3.1170926,2.2667682
589,5.889999999999919,0.6071086,-1.1646411,0.7374211,-0.0022907446,-4.2896485,3.164893
590,5.899999999999919,1.3469079,-1.7429066,0.755349,-1.7296649,-3.1629076,3.1884112
591,5.909999999999918,1.7546146,-1.6418641,1.065733,-3.8395934,-1.5389223,2.8075366
592,5.919999999999918,2.4491673,-1.1411641,1.9085871,-6.3986607,-0.047800206,1.927738
593,5.929999999999918,2.947794,-0.5519834,2.7230246,-7.284721,0.47510046,0.28924468
594,5.939999999999918,3.0612154,0.20123126,3.0477996,-6.453486,0.5766568,-2.0523546
595,5.949999999999918,2.2084215,0.86553836,3.0262132,-5.4420457,0.7819075,-3.6910005
596,5.959999999999917,1.3420295,1.3123327,2.8268723,-4.661207,1.323745,-4.501924
597,5.969999999999917,0.9609707,1.7377843,3.10823,-3.6205983,1.6584991,-4.617836
598,5.979999999999917,0.9609707,1.7377843,3.10823,-0.13530666,1.7745636,-4.593859
599,5.989999999999917,0.43905002,0.054393414,3.1656115,1.3077098,1.605812,-4.3773074
600,5.9999999999999165,-0.23611133,-1.6704632,0.09829842,3.876551,-1.0108292,0.2507602
601,6.009999999999916,-0.23611133,-1.6704632,0.09829842,3.876551,-1.0108292,0.2507602
602,6.019999999999916,0.81175464,-1.3750802,-0.36654577,2.345417,-2.5283713,3.036611
603,6.029999999999916,0.81175464,-1.3750802,-0.36654577,2.345417,-2.5283713,3.036611
604,6.039999999999916,1.5814947,-0.9507263,-0.37916848,1.0977248,-1.3300064,2.4439192
605,6.0499999999999154,2.1144526,-0.56735015,0.062015813,-0.57787853,0.18753563,0.84406304
606,6.059999999999915,2.1144526,-0.56735015,0.062015813,-0.57787853,0.18753563,0.84406304
607,6.069999999999915,2.3333678,-0.30190787,0.7879728,-0.9036224,0.38163805,-0.8739954
608,6.079999999999915,2.3333678,-0.30190787,0.7879728,-0.9036224,0.38163805,-0.8739954
609,6.089999999999915,1.9338323,-0.365875,0.61131614,0.17165314,-0.14340061,-2.2192733
610,6.099999999999914,1.6064352,-0.4235613,0.28465074,0.055436023,-0.13958271,-2.4561365
611,6.109999999999914,1.3689823,-0.40697494,0.27965048,-0.39446622,-0.18661933,-2.5529585
612,6.119999999999914,1.0967103,-0.30288354,0.5924126,-0.39446622,-0.18661933,-2.5529585
613,6.129999999999914,1.0967103,-0.30288354,0.5924126,-0.39446622,-0.18661933,-2.5529585
614,6.1399999999999135,0.705407,-0.163912,1.047744,-0.54168475,-0.19898935,-2.0926716
615,6.149999999999913,0.55576414,-0.15330163,1.1382371,-0.16233744,-0.30940324,-1.6639969
616,6.159999999999913,0.45191658,-0.16122891,1.1465304,0.30970868,-0.49205196,-0.8944594
617,6.169999999999913,0.5339336,-0.18690115,1.0473173,0.6592763,-0.71578133,-0.25152376
618,6.179999999999913,0.8971255,-0.16086306,0.7299816,1.1739303,-1.1650727,0.7237226
619,6.1899999999999125,0.8971255,-0.16086306,0.7299816,1.1739303,-1.1650727,0.7237226
620,6.199999999999912,1.1511037,-0.07091877,0.47801572,0.7849618,-0.93584555,0.54168475
621,6.209999999999912,1.1672632,-0.06140602,0.51265186,0.54260105,-0.7657196,0.28863382
622,6.219999999999912,1.1672632,-0.06140602,0.51265186,0.54260105,-0.7657196,0.28863382
623,6.229999999999912,1.0497563,-0.076406896,0.6252194,0.30573806,-0.2883284,-0.25427267
624,6.239999999999911,0.9543849,-0.10866488,0.6265609,0.30573806,-0.2883284,-0.25427267
625,6.249999999999911,0.9497505,-0.15988737,0.6325369,0.23014349,-0.07666359,-0.38530326
626,6.259999999999911,1.0076197,-0.1542773,0.74120176,0.14874569,-0.03313944,-0.34804046
627,6.269999999999911,1.0417072,-0.08902958,0.8070593,0.28145617,-0.31535918,-0.27397305
628,6.2799999999999105,1.0809166,-0.05744238,0.7144319,0.6575964,-0.6291912,-0.2910773
629,6.28999999999991,0.9904236,-0.06530869,0.5547885,0.93431836,-0.7620544,-0.5175556
630,6.29999999999991,0.9181023,-0.08872469,0.53582394,0.895223,-0.6928739,-0.6207918
631,6.30999999999991,0.82821906,-0.1247024,0.5807046,0.7829765,-0.53023106,-0.70539665
632,6.31999999999991,0.7424214,-0.1334834,0.5857659,0.7370089,-0.25473082,-0.742354
633,6.3299999999999095,0.7118708,-0.15726528,0.5307017,0.7449502,-0.014202617,-0.74082685
634,6.339999999999909,0.6784542,-0.18086421,0.37861964,0.6188065,0.2864958,-0.70738196
635,6.349999999999909,0.6991871,-0.18574256,0.3506302,0.28924468,0.377362,-0.6217081
636,6.359999999999909,0.72796935,-0.07335794,0.5322872,0.20647246,0.04505131,-0.47647488
637,6.369999999999909,0.7866922,-0.043051295,0.5860708,0.59131753,-0.4793765,-0.2565634
638,6.379999999999908,0.8213284,-0.021647604,0.52039623,1.3994923,-1.338253,-0.11224649
639,6.389999999999908,0.9232856,-0.027684543,0.120921694,1.3293955,-1.4217888,-0.18448131
640,6.399999999999908,0.9106629,-0.037136313,0.07408969,1.0149527,-1.3313808,-0.34956762
641,6.409999999999908,0.9106629,-0.037136313,0.07408969,0.61468315,-0.8764389,-0.58261275
642,6.419999999999908,0.8219992,-0.019391375,0.30739596,0.46105054,-0.15042557,-0.82894415
643,6.429999999999907,0.79650986,-0.041404855,0.18562058,0.35735616,0.45158213,-1.039998
644,6.439999999999907,0.7257131,-0.046466127,-0.046527103,0.0013744468,1.1728612,-1.2311989
645,6.449999999999907,0.7052241,-0.043051295,-0.00048783334,-0.48258355,1.4004086,-1.3060299
646,6.459999999999907,0.6460743,0.090554066,0.28184572,-0.5458081,1.0633637,-1.159575
647,6.4699999999999065,0.6758321,0.14799644,0.34678853,-0.024740042,0.43004912,-0.81596327
648,6.479999999999906,0.6758321,0.14799644,0.34678853,-0.024740042,0.43004912,-0.81596327
649,6.489999999999906,0.73864067,0.13543473,0.11073817,0.40790528,-0.063682705,-0.6386596
650,6.499999999999906,0.7174809,0.06774786,0.027989438,0.8903361,-1.6224581,-0.23900102
651,6.509999999999906,0.65595293,0.026708877,0.11073817,0.6818783,-1.8626808,-0.09254608
652,6.519999999999905,0.56253284,0.050246835,0.32587266,0.6087272,-1.6739235,0.00045814895
653,6.529999999999905,0.553142,0.084883004,0.36727753,0.6545421,-1.2560917,0.013744468
654,6.539999999999905,0.5986935,0.09988388,0.23891638,0.70173144,-0.6188065,-0.10369437
655,6.549999999999905,0.6426595,0.08293167,0.039270584,0.5500842,0.0071776668,-0.3371976
656,6.559999999999905,0.6138163,0.042868353,-0.07262619,0.2958115,0.4092797,-0.5288566
657,6.569999999999904,0.58424145,0.029026084,-0.07957781,0.007788532,0.68310004,-0.65286225
658,6.579999999999904,0.50972486,0.082199916,0.07543123,-0.14523321,0.4978552,-0.634689
659,6.589999999999904,0.5166765,0.0717115,0.120494835,0.59574634,-0.33276883,-0.14950927
660,6.599999999999904,0.5166765,0.0717115,0.120494835,0.59574634,-0.33276883,-0.14950927
661,6.6099999999999035,0.42221975,0.045124583,-0.06969919,0.59574634,-0.33276883,-0.14950927
662,6.619999999999903,0.39410836,0.050063897,0.005000292,0.59574634,-0.33276883,-0.14950927
663,6.629999999999903,0.42246366,0.045551438,0.053600688,0.8393288,-1.4862351,1.1571314
664,6.639999999999903,0.54820275,0.046466127,-0.045063604,1.1510228,-1.3973542,1.3875804
665,6.649999999999903,0.6463792,0.011647021,-0.14500846,1.2512047,-1.2014192,1.36788
666,6.659999999999902,0.769923,0.005183229,-0.26599112,1.2512047,-1.2014192,1.36788
667,6.669999999999902,0.8351097,0.004695396,-0.248795,0.9503536,-0.5132795,0.81382525
668,6.679999999999902,0.84078074,0.073540874,-0.2212934,0.7464773,-0.28817567,0.4017966
669,6.689999999999902,0.79285115,0.09433477,-0.32050648,0.62995476,-0.2649628,0.18555032
670,6.699999999999902,0.65845305,0.041282896,-0.35136196,0.5305365,-0.50610185,0.12965615
671,6.709999999999901,0.5471051,0.0395145,-0.37343642,0.50426924,-0.753655,0.33735034
672,6.719999999999901,0.53527516,0.018720604,-0.45075798,0.4908302,-1.0680978,0.72143185
673,6.729999999999901,0.55558115,-0.005732042,-0.5160667,0.35613444,-1.3356569,1.0667235
674,6.739999999999901,0.6041816,0.021403689,-0.5178351,0.14569137,-1.3695599,1.2881621
675,6.7499999999999005,0.6949186,0.042197585,-0.44167212,0.00015271631,-1.0824533,1.2774719
676,6.7599999999999,0.778704,0.09848136,-0.36599696,0.00015271631,-1.0824533,1.2774719
677,6.7699999999999,0.857428,0.17366867,-0.33788556,0.24022275,-0.39690968,0.81122905
678,6.7799999999999,0.98920405,0.21507353,-0.42965922,0.43692136,-0.011911872,0.39385536
679,6.7899999999999,1.0212182,0.184401,-0.643879,0.43692136,-0.011911872,0.39385536
680,6.7999999999998995,0.91279715,0.11909231,-0.73479897,0.5317582,0.49189925,-0.13988814
681,6.809999999999899,0.76498365,0.13634941,-0.6847961,0.36926803,0.7819075,-0.57635134
682,6.819999999999899,0.70534605,0.1214705,-0.6535747,0.37720928,0.4720461,-0.5004513
683,6.829999999999899,0.70534605,0.1214705,-0.6535747,0.56688297,0.028099801,-0.31016684
684,6.839999999999899,0.737665,0.1367153,-0.6787591,0.75319684,-0.4830417,-0.06841691
685,6.849999999999898,0.787546,0.13110521,-0.6952235,0.8199339,-0.79611015,0.023823744
686,6.859999999999898,0.8045591,0.09488358,-0.6191215,0.8246681,-0.9109528,-0.012370021
687,6.869999999999898,0.7560197,0.08335852,-0.48252818,0.872621,-0.8727737,-0.07086037
688,6.879999999999898,0.72918886,0.066040434,-0.37191194,1.0754282,-0.61407226,-0.11713341
689,6.8899999999998975,0.72485936,-0.028050419,-0.37081432,1.2997686,-0.07086037,-0.21960606
690,6.899999999999897,0.67607605,-0.025916148,-0.36404565,1.352761,0.6407976,-0.38240165
691,6.909999999999897,0.7179077,-0.047197875,-0.39355955,1.3923146,1.2866349,-0.44104472
692,6.919999999999897,0.7179077,-0.047197875,-0.39355955,1.4729488,1.9998201,-0.5047274
693,6.929999999999897,0.8219382,-0.059759583,-0.5556422,1.4743233,2.7722592,-0.6974554
694,6.9399999999998965,0.98091084,-0.025062438,-0.82931674,1.2197452,3.2206342,-0.8979719
695,6.949999999999896,1.1008569,0.01762298,-1.1093329,0.728915,3.324634,-1.105666
696,6.959999999999896,0.7923633,0.08963938,-0.7097975,-0.018936822,2.8706086,-1.2333369
697,6.969999999999896,0.9823744,0.055369087,-1.129944,-0.34208453,1.3475688,-0.54275376
698,6.979999999999896,0.74571425,0.1428132,-0.46094155,-0.34208453,1.3475688,-0.54275376
699,6.989999999999895,0.8984061,0.21440275,-0.3170307,0.34987307,0.39477167,0.09666943
700,6.999999999999895,1.0278038,0.17702252,-0.36983865,0.795652,0.1731803,0.17623462
701,7.009999999999895,1.0984178,0.1510454,-0.39996237,0.8544478,0.48930305,-0.019089539
702,7.019999999999895,1.2141562,0.12817821,-0.45264837,0.60246587,1.9254472,-0.90133166
703,7.0299999999998946,1.2377552,0.14787449,-0.7338233,0.18707748,2.944523,-1.5774068
704,7.039999999999894,1.0775629,0.19306004,-0.7818139,-0.24510968,3.1232014,-1.8536706
705,7.049999999999894,1.0265843,0.20208496,-0.7575442,-0.24510968,3.1232014,-1.8536706
706,7.059999999999894,1.0265843,0.20208496,-0.7575442,-0.24510968,3.1232014,-1.8536706
707,7.069999999999894,0.66028243,0.26477155,-0.27129632,-0.09132435,1.2852604,-0.82970774
708,7.0799999999998935,0.66028243,0.26477155,-0.27129632,-0.09132435,1.2852604,-0.82970774
709,7.089999999999893,1.0962225,0.228306,-0.17287594,-0.09132435,1.2852604,-0.82970774
710,7.099999999999893,0.79693675,0.20489,-0.20385335,0.2817616,-0.013286319,0.12736541
711,7.109999999999893,1.2165954,0.2920902,-0.109640546,0.12293663,-0.01038471,0.25228736
712,7.119999999999893,1.2506217,0.42484185,-0.093054205,0.172264,1.196685,-0.7603745
713,7.129999999999892,1.2506217,0.42484185,-0.093054205,0.172264,1.196685,-0.7603745
714,7.139999999999892,1.1598847,0.4346595,-0.22598879,0.28924468,1.5995506,-1.1772901
715,7.149999999999892,1.0663427,0.3234945,-0.36343583,0.30466905,1.7310394,-1.466382
716,7.159999999999892,0.9584705,0.14147167,-0.38666892,0.16905695,1.4946345,-1.4149166
717,7.169999999999892,0.91627294,0.0127446465,-0.33239743,-0.3529274,0.19960022,-0.1441642
718,7.179999999999891,0.7905949,-0.094456725,-0.2222081,-0.3529274,0.19960022,-0.1441642
719,7.189999999999891,0.87834394,-0.102140106,0.07945585,-0.4989242,-0.34697145,0.626595
720,7.199999999999891,0.87834394,-0.102140106,0.07945585,-0.55939984,-0.8739954,1.7881553
721,7.209999999999891,1.47533,0.16287535,-0.021586625,-0.66721755,-0.49678615,1.5082263
722,7.2199999999998905,1.5492977,0.21074401,0.009268833,-0.73853606,-0.15241088,1.1050552
723,7.22999999999989,1.577836,0.23531862,0.021403689,-0.7693848,0.23472497,0.63591075
724,7.23999999999989,1.5486269,0.16818054,-0.041404855,-0.70417494,0.76831573,-0.29077184
725,7.24999999999989,1.41679,0.0834195,-0.06457694,-0.659429,0.84482664,-0.7139487
726,7.25999999999989,1.0830511,-0.040612124,-0.10488417,-0.6963864,0.9482156,-0.8174904
727,7.269999999999889,0.8718801,-0.1364104,-0.0892735,-0.84864455,0.79626286,-0.5682574
728,7.279999999999889,0.8718801,-0.1364104,-0.0892735,-0.84864455,0.79626286,-0.5682574
729,7.289999999999889,0.47057623,-0.09342009,0.10061563,-1.0965031,0.15195273,0.5497787
730,7.299999999999889,0.49759,-0.029574897,0.19123067,-1.0202976,-0.119729586,1.2927436
731,7.309999999999889,0.7175419,0.11988505,0.18427904,-0.81031275,-0.20082195,1.7128662
732,7.319999999999888,0.9906676,0.2830043,0.07049192,-0.6081163,0.04444045,1.6030631
733,7.329999999999888,1.0853683,0.36038688,-0.0031099375,-0.48548517,0.38621956,1.1362094
734,7.339999999999888,1.2007408,0.41502422,-0.05427146,-0.14630222,1.2550226,-0.39080104
735,7.349999999999888,1.2268398,0.39093745,-0.17019285,-0.14630222,1.2550226,-0.39080104
736,7.3599999999998875,1.1378713,0.2900779,-0.28093103,-0.01695151,1.4538593,-0.98654735
737,7.369999999999887,0.87846595,0.097200796,-0.3547768,0.047494773,1.6417004,-1.3574953
738,7.379999999999887,0.4378304,-0.112872444,-0.57247245,-0.16249016,1.5482379,-0.94989544
739,7.389999999999887,0.35495973,-0.15263085,-0.6483305,-0.37705657,1.3536774,-0.4353942
740,7.399999999999887,0.3752658,-0.14189851,-0.6886987,-0.37705657,1.3536774,-0.4353942
741,7.4099999999998865,0.3752658,-0.14189851,-0.6886987,-0.9662361,0.6973027,0.61315596
742,7.419999999999886,0.7683985,0.08287069,-0.35178882,-1.1009319,0.49663344,0.85047716
743,7.429999999999886,0.9440795,0.18427904,-0.23525764,-1.0461067,0.44318274,0.78022766
744,7.439999999999886,1.1392738,0.26416174,-0.15732625,-0.88224214,0.37048978,0.48670688
745,7.449999999999886,1.2634883,0.22995245,-0.13080032,-0.88224214,0.37048978,0.48670688
746,7.459999999999885,1.2661104,0.08774903,-0.26007617,-0.42959097,0.011301007,0.038331795
747,7.469999999999885,1.2094609,-0.07049192,-0.40051118,-0.4184427,-0.48533243,0.018478673
748,7.479999999999885,1.0973201,-0.14610608,-0.3529474,-0.56306505,-0.9314168,0.21746802
749,7.489999999999885,0.9874967,-0.25519782,-0.1232389,-0.6113234,-1.3875804,0.6815729
750,7.4999999999998845,0.9611537,-0.30202982,0.051588375,-0.4343252,-1.5909985,1.0432051
751,7.509999999999884,1.0342066,-0.41392657,-0.017988855,-0.19914207,-1.681712,1.3582588
752,7.519999999999884,1.0342066,-0.41392657,-0.017988855,-0.2657264,-1.6954565,1.4495832
753,7.529999999999884,1.1717757,-0.46728337,-0.0471369,-0.50885075,-1.8606955,1.3692545
754,7.539999999999884,1.4789277,-0.48338187,0.2470876,-0.71669763,-2.3542747,1.1068878
755,7.5499999999998835,1.3797756,-0.55576414,0.51015174,-0.6256787,-2.0367775,0.82970774
756,7.559999999999883,1.1204922,-0.755166,0.6771127,-0.6256787,-2.0367775,0.82970774
757,7.569999999999883,1.1204922,-0.755166,0.6771127,-1.026559,-1.1846204,1.0206031
758,7.579999999999883,0.7533366,-1.0763433,0.63595176,-2.0825922,-0.5360342,1.6584991
759,7.589999999999883,0.760959,-1.1537259,1.39624,-2.6451993,-0.25335637,3.6257906
760,7.599999999999882,1.4330715,-0.933591,1.8651698,-2.3721426,0.118507855,3.7862954
761,7.609999999999882,1.4330715,-0.933591,1.8651698,-2.3721426,0.118507855,3.7862954
762,7.619999999999882,2.169761,-0.45197758,1.7024165,-2.93872,1.3341297,2.1029036
763,7.629999999999882,2.4322152,-0.3100181,1.6949768,-3.5633297,1.555721,0.35353827
764,7.6399999999998816,2.3235502,-0.22525704,1.8882809,-3.9217548,1.2253957,-0.9575313
765,7.649999999999881,1.9415766,-0.2112928,2.1108549,-3.9301543,1.0044152,-1.754405
766,7.659999999999881,1.5510662,-0.0062808543,2.043046,-3.4839172,1.0056369,-2.01219
767,7.669999999999881,1.2706839,0.3715461,1.8781583,-2.9234483,0.7516697,-2.0076087
768,7.679999999999881,1.2706839,0.3715461,1.8781583,-2.9234483,0.7516697,-2.0076087
769,7.6899999999998805,1.2706839,0.3715461,1.8781583,-2.9234483,0.7516697,-2.0076087
770,7.69999999999988,0.971825,0.5001511,2.1070132,-1.0896308,0.743423,-1.3842206
771,7.70999999999988,1.0751847,0.02792846,1.9389546,0.71883565,0.5102252,-0.9450085
772,7.71999999999988,1.0464635,-0.40380403,1.5536273,1.5506815,0.21426098,-0.77091193
773,7.72999999999988,1.0031683,-0.7421775,1.0057294,2.1778872,-0.122020334,-0.54412824
774,7.739999999999879,1.0520126,-0.8862102,0.53283596,2.1755965,-0.4184427,-0.4034765
775,7.749999999999879,1.2087901,-0.8433418,0.23220867,1.0204504,-1.1481212,-0.27198774
776,7.759999999999879,1.3190404,-0.7079681,0.4344156,0.3239113,-0.7974846,-0.41355577
777,7.769999999999879,1.3190404,-0.7079681,0.4344156,-0.12843442,-0.29657507,-0.5739079
778,7.779999999999879,1.4554508,-0.4133168,0.7104073,-0.46731192,0.2612976,-0.7666359
779,7.789999999999878,1.5646645,-0.3413004,0.7646788,-0.50503284,0.40103304,-0.99021256
780,7.799999999999878,1.5716162,-0.24178241,0.78791183,-0.38912117,0.25244007,-1.321607
781,7.809999999999878,1.419412,-0.17860797,0.86456263,-0.20922135,-0.0056505036,-1.5800029
782,7.819999999999878,1.3126376,-0.14897211,0.8967596,-0.06047566,-0.15134187,-1.7117971
783,7.8299999999998775,1.0834168,-0.09128582,0.92688334,-0.06047566,-0.15134187,-1.7117971
784,7.839999999999877,0.9691419,-0.10665256,0.9107849,0.27030787,-0.16157386,-1.6998852
785,7.849999999999877,0.8884055,-0.15763116,0.8238895,0.39202276,-0.04810564,-1.5037975
786,7.859999999999877,0.8884055,-0.19867012,0.65137947,0.3857614,-0.009773844,-1.1088731
787,7.869999999999877,0.93072504,-0.19501138,0.6566237,0.21044308,-0.05513059,-0.6056729
788,7.879999999999876,0.93121284,-0.17293692,0.69241846,0.13744467,-0.10903945,-0.4260785
789,7.889999999999876,0.8727948,-0.15336262,0.819316,0.12064589,-0.17211129,-0.1554652
790,7.899999999999876,0.84382975,-0.13921544,0.8841369,0.21273382,-0.1957823,0.009010263
791,7.909999999999876,0.86858726,-0.10659158,0.97560567,0.34391713,-0.28389964,0.10064005
792,7.919999999999876,0.89395463,-0.07421165,1.0037171,0.51266867,-0.38912117,0.09605856
793,7.929999999999875,0.90115017,-0.05933273,0.90322345,0.75854194,-0.4729624,0.051465396
794,7.939999999999875,0.9118215,-0.122202255,0.7476656,1.0332786,-0.47510046,-0.01282817
795,7.949999999999875,0.9210293,-0.18696213,0.59649825,1.052979,-0.45540005,-0.045814894
796,7.959999999999875,0.87858784,-0.22836697,0.52594537,0.88499105,-0.2733622,-0.04886922
797,7.9699999999998745,0.86639196,-0.21550037,0.6158286,0.5392413,0.13316862,-0.121256754
798,7.979999999999874,0.87017274,-0.22226907,0.48191833,0.48991394,0.20845777,-0.14630222
799,7.989999999999874,0.8964548,-0.21428078,0.48551616,0.39904773,0.23839016,-0.15561792
800,7.999999999999874,0.9509091,-0.13006857,0.6463182,0.3744604,0.08811731,-0.15027285
801,8.009999999999874,1.0219499,-0.07689473,0.67363685,0.62125,-0.15561792,-0.13423763
802,8.019999999999873,1.068599,-0.0775655,0.5420438,1.1104003,-0.5028948,-0.17867808
803,8.029999999999873,1.0408534,-0.10317675,0.3544719,1.3238977,-0.8006916,-0.24694228
804,8.039999999999873,1.0408534,-0.10317675,0.3544719,1.3238977,-0.8006916,-0.24694228
805,8.049999999999873,0.8709654,-0.14482552,0.30892047,1.3238977,-0.8006916,-0.24694228
806,8.059999999999873,0.9487749,-0.13116619,0.31831124,1.1340714,-0.7593055,-0.3315471
807,8.069999999999872,0.7920584,-0.17287594,0.22178122,0.6921103,-0.07269296,-0.43508878
808,8.079999999999872,0.77791125,-0.13665432,0.15000875,0.3817908,0.15485434,-0.44898596
809,8.089999999999872,0.7577881,-0.08823685,0.23306239,0.04016439,0.31627548,-0.46395215
810,8.099999999999872,0.7394943,-0.037990022,0.4305739,0.01863139,0.37843102,-0.43386704
811,8.109999999999872,0.75223905,0.027989438,0.47716197,0.01863139,0.37843102,-0.43386704
812,8.119999999999871,0.82895076,0.05939371,0.39179114,0.6229298,0.055283304,-0.2929099
813,8.129999999999871,0.9713981,0.04481969,-0.0037807084,0.8943067,-0.3895793,-0.24404067
814,8.139999999999871,0.91419965,0.016159479,-0.024452647,0.8950703,-0.7704538,-0.29260445
815,8.14999999999987,0.91419965,0.016159479,-0.024452647,0.71685034,-1.0965031,-0.3903429
816,8.15999999999987,0.7752892,-0.03140427,0.15360652,0.44791695,-1.1446087,-0.42363504
817,8.16999999999987,0.63918364,-0.05860098,0.28312626,0.44791695,-1.1446087,-0.42363504
818,8.17999999999987,0.5760702,-0.088419795,0.22293983,0.32711834,-0.3810272,-0.24404067
819,8.18999999999987,0.5760702,-0.088419795,0.22293983,0.1386664,-0.12690726,-0.1740966
820,8.19999999999987,0.6311344,0.04439283,0.3466056,0.1386664,-0.12690726,-0.1740966
821,8.20999999999987,0.6311344,0.04439283,0.3466056,0.2649628,-0.100334615,-0.0290161
822,8.21999999999987,0.74839735,0.096895896,0.2336112,0.50976706,-0.21594086,-0.05024367
823,8.229999999999869,0.7632762,0.11360419,0.10049367,0.53801954,-0.3587306,-0.092240654
824,8.239999999999869,0.7632762,0.11360419,0.10049367,0.53801954,-0.3587306,-0.092240654
825,8.249999999999869,0.68491805,0.04268542,0.03286777,0.37522396,-0.81016004,-0.14401148
826,8.259999999999868,0.6372323,0.0015244792,0.04896627,0.37522396,-0.81016004,-0.14401148
827,8.269999999999868,0.5699113,-0.035672814,0.123299874,0.31138855,-1.0691669,-0.0125227375
828,8.279999999999868,0.5699113,-0.035672814,0.123299874,0.31016684,-1.0236574,0.15363261
829,8.289999999999868,0.45789257,-0.010305479,0.20031658,0.41493022,-0.9324858,0.33628133
830,8.299999999999867,0.5302139,-0.009756667,0.084578104,0.559858,-0.8043568,0.5323691
831,8.309999999999867,0.5998521,0.00512225,0.029026084,0.5403103,-0.70661837,0.5954409
832,8.319999999999867,0.6495501,0.0336605,0.01750102,0.45875978,-0.6047566,0.57009
833,8.329999999999867,0.7583979,0.04494165,-0.008354146,0.45875978,-0.6047566,0.57009
834,8.339999999999867,0.7583979,0.04494165,-0.008354146,0.4560109,-0.5684101,0.38026363
835,8.349999999999866,0.6961991,0.0471369,-0.12445848,0.24816401,-0.47143525,-0.028863383
836,8.359999999999866,0.6318052,0.022440333,-0.10384752,0.17440203,-0.4596761,-0.004886922
837,8.369999999999866,0.5633865,0.005549104,-0.07805333,0.17440203,-0.4596761,-0.004886922
838,8.379999999999866,0.5633865,0.005549104,-0.07805333,0.17745635,-0.48380527,0.14935656
839,8.389999999999866,0.5192986,0.012622688,-0.059088815,0.21074851,-0.5151121,0.34055737
840,8.399999999999865,0.65113556,0.06866254,-0.16708292,0.21074851,-0.5151121,0.34055737
841,8.409999999999865,0.7418116,0.07744354,-0.32568973,0.3996586,-0.61346143,0.635758
842,8.419999999999865,0.860416,0.15872878,-0.58424145,0.06963864,-0.5354234,0.40958515
843,8.429999999999865,0.81553537,0.19415767,-0.5529591,-0.24877487,-0.55848354,0.22403483
844,8.439999999999864,0.7340672,0.19269417,-0.3963646,-0.39645153,-0.58016926,0.15714508
845,8.449999999999864,0.70351666,0.21854934,-0.3316657,-0.30695978,-0.59788436,0.18234327
846,8.459999999999864,0.7097975,0.2511732,-0.3413004,-0.120493166,-0.6785186,0.21930063
847,8.469999999999864,0.74418974,0.26641798,-0.37813184,-0.120493166,-0.6785186,0.21930063
848,8.479999999999864,0.74418974,0.26641798,-0.37813184,0.00290161,-0.79733187,0.22907446
849,8.489999999999863,0.73004264,0.240014,-0.36435053,0.25366178,-1.1316279,0.11835514
850,8.499999999999863,0.6799787,0.21245141,-0.36105764,0.3304781,-1.066418,0.09162979
851,8.509999999999863,0.6399763,0.18043736,-0.3878885,0.36713,-0.9049969,0.09483683
852,8.519999999999863,0.6799787,0.16330221,-0.47838157,0.3315471,-0.6195701,0.1386664
853,8.529999999999863,0.6799787,0.16330221,-0.47838157,0.3315471,-0.6195701,0.1386664
854,8.539999999999862,0.83754885,0.20653644,-0.66985613,0.3315471,-0.6195701,0.1386664
855,8.549999999999862,0.8324875,0.257515,-0.5789362,-0.33826664,-0.22770002,-0.20479257
856,8.559999999999862,0.76156884,0.32215294,-0.49661437,-0.29000828,-0.18845193,-0.31963524
857,8.569999999999862,0.7165052,0.32715324,-0.5253965,0.22128594,-0.605062,-0.28771752
858,8.579999999999862,0.7165052,0.32715324,-0.5253965,0.46960264,-0.768163,-0.2182316
859,8.589999999999861,0.6986383,0.30312744,-0.5262502,0.46960264,-0.768163,-0.2182316
860,8.599999999999861,0.6934551,0.27550387,-0.48356482,0.61911196,-0.7538077,-0.23701571
861,8.60999999999986,0.74919003,0.29459035,-0.4101459,0.9964739,-0.024587326,-0.5862779
862,8.61999999999986,0.79876614,0.30495682,-0.45508754,1.1198688,0.44440445,-0.91889405
863,8.62999999999986,0.76156884,0.29202923,-0.47917432,1.1198688,0.44440445,-0.91889405
864,8.63999999999986,0.7112,0.31154257,-0.5227744,1.1064297,1.5383114,-1.5143349
865,8.64999999999986,0.6902232,0.36282605,-0.5996691,1.0157162,1.7754798,-1.6247488
866,8.65999999999986,0.6802836,0.37331447,-0.6398544,0.8953757,1.7699821,-1.5619824
867,8.66999999999986,0.68723524,0.38941297,-0.66180694,0.8367327,1.3745996,-1.2670872
868,8.67999999999986,0.76004434,0.37002158,-0.61851174,0.89843005,0.91889405,-0.9662361
869,8.68999999999986,0.9099921,0.31520134,-0.5193596,1.1485794,0.6229298,-0.8313876
870,8.699999999999859,1.118297,0.27995536,-0.5153959,1.3231341,0.70906186,-1.0471758
871,8.709999999999859,1.2636104,0.24141651,-0.49887055,1.3307699,1.1418599,-1.4440855
872,8.719999999999859,1.428498,0.2093415,-0.48899198,1.3400856,1.7880026,-2.0118847
873,8.729999999999858,1.4925871,0.13281263,-0.6170482,1.4446963,2.5111144,-2.8313603
874,8.739999999999858,1.3287361,0.039880376,-0.8485251,1.4014776,2.770121,-3.3110423
875,8.749999999999858,1.0691477,-0.063113436,-1.0072539,1.1099422,2.6083946,-3.303712
876,8.759999999999858,0.7918145,-0.12549512,-1.0706723,0.655153,2.2901337,-2.8415923
877,8.769999999999857,0.63942754,-0.048661377,-1.1370175,-0.32085696,1.6035212,-1.5836681
878,8.779999999999857,0.7594345,0.08159013,-1.0282307,-0.32085696,1.6035212,-1.5836681
879,8.789999999999857,0.7594345,0.08159013,-1.0282307,-1.1618657,0.32375857,-0.22327125
880,8.799999999999857,1.0239011,0.30751795,-0.54350734,-1.3481796,-0.17959438,0.24373524
881,8.809999999999857,1.0493906,0.3956938,-0.3181893,-1.3069462,-0.26816985,0.44623706
882,8.819999999999856,1.1410422,0.5632036,-0.07518731,-1.0731375,-0.12018774,0.47647488
883,8.829999999999856,1.1410422,0.5632036,-0.07518731,-0.8718574,0.049480084,0.39629883
884,8.839999999999856,1.2300107,0.6801007,-0.11622629,-0.8718574,0.049480084,0.39629883
885,8.849999999999856,1.2519633,0.75547093,-0.21629311,-0.4457789,0.08674286,-0.039095376
886,8.859999999999856,0.9977411,0.62381685,-0.21043912,-0.29565877,-0.04153884,0.01863139
887,8.869999999999855,0.9261516,0.5964372,-0.2502585,-0.2854268,-0.0290161,0.14828753
888,8.879999999999855,0.8323047,0.5175912,-0.32239684,-0.38652498,0.034208454,0.3736968
889,8.889999999999855,0.73278666,0.42459795,-0.25544173,-0.4981606,0.06429356,0.5858198
890,8.899999999999855,0.7065656,0.3899008,-0.096895896,-0.5505423,-0.048716504,1.0936015
891,8.909999999999854,0.89151543,0.40441385,-0.03237994,-0.21151209,-0.012980887,1.5103643
892,8.919999999999854,1.1581774,0.4344156,-0.15238695,-0.21151209,-0.012980887,1.5103643
893,8.929999999999854,1.278977,0.44362345,-0.24531919,-0.3043636,0.13133603,1.2815952
894,8.939999999999854,1.171044,0.3810588,0.058905877,-0.4810564,0.18845193,1.0538952
895,8.949999999999854,1.171044,0.3810588,0.058905877,-0.49938235,-0.053603426,0.94225967
896,8.959999999999853,1.2116561,0.36538717,0.2505634,-0.25030205,-0.43004912,1.1386528
897,8.969999999999853,1.2116561,0.36538717,0.2505634,-0.25030205,-0.43004912,1.1386528
898,8.979999999999853,1.4575851,0.3225798,0.10342067,0.3297145,-0.7021896,1.1814134
899,8.989999999999853,1.3898982,0.30800578,0.10488417,0.23167065,0.24312437,0.39629883
900,8.999999999999853,1.3898982,0.30800578,0.10488417,0.3182608,0.7861836,-0.054367006
901,9.009999999999852,1.3898982,0.30800578,0.10488417,0.3182608,0.7861836,-0.054367006
902,9.019999999999852,0.7954732,0.08524887,-0.43045196,0.0954477,2.069917,-0.90392786
903,9.029999999999852,0.50210243,0.012561709,-0.49051642,-0.42943826,2.2351558,-0.81489426
904,9.039999999999852,0.269284,-0.019879209,-0.44179407,-1.1215485,1.8887954,-0.15118915
905,9.049999999999851,0.081956,-0.067503944,-0.19842622,-1.491122,1.3787229,0.6426302
906,9.059999999999851,-0.011525063,0.02494048,0.23025733,-1.5031867,0.23090707,1.9023871
907,9.069999999999851,0.28904125,0.14970386,0.4232564,-0.83016586,-0.54061574,3.0268373
908,9.07999999999985,0.59088814,0.24068478,0.25269768,-0.83016586,-0.54061574,3.0268373
909,9.08999999999985,0.7791918,0.32306764,0.040612124,0.03863723,-0.5352707,2.966209
910,9.09999999999985,0.86742866,0.30233473,-0.04988096,-0.20708331,0.37003163,2.1265745
911,9.10999999999985,0.78925335,0.21598822,0.070248,-0.603993,1.4401149,1.148274
912,9.11999999999985,0.5257014,0.1009815,0.27422333,-0.73273283,2.1659753,0.6392705
913,9.12999999999985,0.3591673,0.02646496,0.30562758,-0.7469355,2.7209466,0.46807548
914,9.13999999999985,0.15872878,0.011159187,0.32379937,-0.7457138,2.5515842,0.6754643
915,9.14999999999985,0.10903075,0.038599815,0.45356306,-0.5342017,1.7302758,1.3982705
916,9.15999999999985,0.34727636,0.08695629,0.48795533,0.5137377,0.020922136,2.2756257
917,9.169999999999849,0.82828003,0.11195775,0.22885482,0.7487681,-0.18173242,2.149482
918,9.179999999999849,0.9412134,0.03506302,0.19196242,0.7487681,-0.18173242,2.149482
919,9.189999999999849,1.0093882,-0.038294915,0.14336202,0.63041294,0.6525568,1.4150693
920,9.199999999999848,1.074392,-0.06286953,0.09360302,0.63041294,0.6525568,1.4150693
921,9.209999999999848,1.2066557,-0.0687845,-0.020489,0.41813725,1.4874569,0.8034405
922,9.219999999999848,1.2354989,-0.05567398,-0.08860273,-0.00076358154,2.5282185,-0.14920384
923,9.229999999999848,1.250012,-0.03884373,-0.18220575,-0.11591168,2.082745,-0.3903429
924,9.239999999999847,1.2889166,-0.10342067,-0.18586451,-0.0033597588,1.0888673,-0.321926
925,9.249999999999847,1.3205649,-0.30428603,-0.26056397,-0.0033597588,1.0888673,-0.321926
926,9.259999999999847,1.1451279,-0.37520483,-0.31898203,0.43692136,-0.9896017,0.41126502
927,9.269999999999847,0.98005724,-0.43776944,-0.4996633,0.39767328,-1.7191275,1.589624
928,9.279999999999847,0.87901473,-0.4122192,-0.6935161,0.123242065,-1.9126191,2.2689064
929,9.289999999999846,0.9305421,-0.40166977,-0.6911379,-0.38056904,-1.8538233,2.8576276
930,9.299999999999846,1.0266452,-0.53759235,-0.4166097,-0.69989884,-1.4136949,3.0520356
931,9.309999999999846,1.1264682,-0.6429643,-0.19598705,-1.0659598,-0.5543602,2.9544497
932,9.319999999999846,1.3944715,-0.6919306,0.28776067,-1.333977,0.2733622,2.659402
933,9.329999999999846,1.6643045,-0.76266646,0.3527645,-1.4475979,1.322676,2.0659463
934,9.339999999999845,1.9938968,-0.96786135,0.319104,-1.585348,1.5332718,1.4695891
935,9.349999999999845,2.0696938,-1.2586709,0.52033526,-1.9501873,1.1163563,0.9381363
936,9.359999999999845,2.0473144,-1.4921603,0.7027849,-2.306169,0.66874474,1.0294607
937,9.369999999999845,2.0392044,-1.5049049,0.6950405,-2.988811,-0.0012217305,1.5282321
938,9.379999999999844,2.1348805,-1.1552503,0.86566025,-3.8811324,-0.95814216,1.2121093
939,9.389999999999844,1.5319186,-0.7106512,2.1874447,-4.3030877,-1.0722213,0.20555615
940,9.399999999999844,1.5319186,-0.7106512,2.1874447,-4.0807323,0.70371675,-2.2104158
941,9.409999999999844,0.7607151,-0.5175912,2.3255017,-3.9481747,1.2873985,-2.5998425
942,9.419999999999844,0.66753894,-0.04634417,2.3494663,-3.539506,1.4081972,-2.6821566
943,9.429999999999843,0.66955125,0.48722354,2.3156838,-3.539506,1.4081972,-2.6821566
944,9.439999999999843,0.7575442,0.69132084,2.265315,-1.9625573,1.1339186,-2.582891
945,9.449999999999843,0.8620015,0.5748506,2.3706262,-1.9625573,1.1339186,-2.582891
946,9.459999999999843,0.8620015,0.5748506,2.3706262,-0.977079,0.9682214,-2.467132
947,9.469999999999843,1.0468904,-0.47142997,1.7498581,1.7136297,-0.6571383,-1.3180945
948,9.479999999999842,1.0468904,-0.47142997,1.7498581,2.5798366,-1.8674151,-0.602924
949,9.489999999999842,1.0468904,-0.47142997,1.7498581,2.5798366,-1.8674151,-0.602924
950,9.499999999999842,1.0468904,-0.47142997,1.7498581,2.5798366,-1.8674151,-0.602924
951,9.509999999999842,1.2365355,-1.0346335,0.24897793,0.7707592,-1.7003434,-0.43890667
952,9.519999999999841,1.3310533,-0.79650986,0.45801452,0.05787948,-0.93294394,-0.8232936
953,9.529999999999841,1.3872151,-0.6457694,0.70089453,-0.33475417,-0.20112738,-1.2275337
954,9.539999999999841,1.4424622,-0.506493,0.8483422,-0.32238412,0.10247265,-1.4477507
955,9.54999999999984,1.4888064,-0.44185504,0.8562694,-0.1956296,0.19440787,-1.6638442
956,9.55999999999984,1.5552737,-0.45770964,0.80065644,-0.14614952,-0.13362677,-1.7331774
957,9.56999999999984,1.5070392,-0.4314276,0.7306524,-0.043676864,-0.62018096,-1.8675678
958,9.57999999999984,1.1918379,-0.41673166,0.7565076,0.02565634,-0.795652,-1.960572
959,9.58999999999984,1.0637206,-0.34349567,0.60375476,0.06765333,-0.77854776,-2.0497584
960,9.59999999999984,0.96353185,-0.2245253,0.50771254,-0.31856623,-0.1339322,-1.9960022
961,9.60999999999984,0.96353185,-0.2245253,0.50771254,-0.31856623,-0.1339322,-1.9960022
962,9.61999999999984,0.9096872,-0.17110755,0.69851637,-0.5209153,0.13469578,-1.8956676
963,9.62999999999984,0.8730387,-0.123299874,0.92663944,-0.4100433,0.21380283,-1.6714801
964,9.639999999999839,0.9123093,-0.11811664,0.9469455,0.20570888,-0.038789943,-1.0670289
965,9.649999999999839,0.94133544,-0.115128666,0.91548026,0.49235737,-0.45769078,-0.7307475
966,9.659999999999838,0.94139636,-0.11207971,0.8116937,0.7480045,-0.8582657,-0.3715588
967,9.669999999999838,0.93316424,-0.09171267,0.6039377,0.7669413,-1.047023,-0.22617286
968,9.679999999999838,0.86657494,-0.082626775,0.56594765,0.65484756,-0.95142263,-0.23839016
969,9.689999999999838,0.86657494,-0.082626775,0.56594765,0.38683042,-0.58093286,-0.33582318
970,9.699999999999838,0.7563246,-0.06543065,0.5207621,0.05513059,0.19410244,-0.5551238
971,9.709999999999837,0.7563246,-0.06543065,0.5207621,0.05513059,0.19410244,-0.5551238
972,9.719999999999837,0.7034557,-0.061162103,0.5874123,-0.4280638,0.9973902,-0.8906415
973,9.729999999999837,0.6744906,-0.0082321875,0.72827417,-0.42363504,1.0754282,-0.9117164
974,9.739999999999837,0.62308514,-0.07396773,0.83675617,-0.16371189,0.98929626,-0.84971356
975,9.749999999999837,0.62308514,-0.07396773,0.83675617,0.21746802,0.6771441,-0.66737026
976,9.759999999999836,0.6046084,-0.10701844,0.7560807,0.54443365,0.24281894,-0.30879238
977,9.769999999999836,0.66455096,-0.06756492,0.63387847,0.82436264,-0.57604593,0.24190263
978,9.779999999999836,0.7510194,-0.112994395,0.43941587,1.0170907,-1.349096,0.7504479
979,9.789999999999836,0.7965709,-0.011098208,0.50539535,0.9483683,-1.6056592,0.91247994
980,9.799999999999836,0.7965709,-0.011098208,0.50539535,0.8063421,-1.440573,0.88025683
981,9.809999999999835,0.80279076,0.020732917,0.4027064,0.5002986,-0.10827587,0.16218472
982,9.819999999999835,0.72827417,-0.041526813,0.27995536,0.5002986,-0.10827587,0.16218472
983,9.829999999999835,0.6740027,-0.07226031,0.36843613,-0.24037547,1.3651311,-0.59483004
984,9.839999999999835,0.6343663,-0.034514207,0.512347,-0.32253686,1.3854424,-0.5991061
985,9.849999999999834,0.6343663,-0.034514207,0.512347,-0.32253686,1.3854424,-0.5991061
986,9.859999999999834,0.7252862,-0.07799236,0.31251824,0.41493022,0.4361578,-0.20647246
987,9.869999999999834,0.70089453,-0.032562874,0.23763582,0.5328272,-0.44883323,0.064599
988,9.879999999999834,0.7127855,-0.025245376,0.21330512,0.50503284,-1.0112875,0.3213151
989,9.889999999999834,0.69247943,-0.022196416,0.2930049,0.45906523,-1.3871223,0.5047274
990,9.899999999999833,0.66314846,0.013781292,0.32684833,0.44073927,-1.4239268,0.5488624
991,9.909999999999833,0.6332077,0.064272046,0.46917373,0.43127087,-0.9297369,0.47219884
992,9.919999999999833,0.6605873,0.09537142,0.39063254,0.44837508,-0.2134974,0.18188512
993,9.929999999999833,0.69973594,0.080492504,0.23916028,0.3352123,0.4016439,-0.13209961
994,9.939999999999833,0.68857676,0.029635875,0.060369372,-0.06291912,0.9990701,-0.49189925
995,9.949999999999832,0.63674444,0.0011586042,0.09524946,-0.3475823,1.1630874,-0.6337727
996,9.959999999999832,0.54490983,0.033111688,0.34441036,-0.3475823,1.1630874,-0.6337727
997,9.969999999999832,0.54490983,0.033111688,0.34441036,-0.3475823,1.1630874,-0.6337727
998,9.979999999999832,0.54490983,0.033111688,0.34441036,-0.52396965,0.8900307,-0.48823404
999,9.989999999999831,0.76870334,0.06347931,0.124580435,0.6429357,-1.16492,0.61636305
1000,9.999999999999831,0.7732159,0.043356188,0.22135438,0.50793445,-1.8390098,0.91553426
