id,timestamp,acc_x,acc_y,acc_z,gyro_x,gyro_y,gyro_z
0,0,-0.034758125,0.05427146,-0.14945993,-1.2548699,-0.9414961,-0.23090707
1,0.01,-0.09061504,0.061954834,-0.22757424,-1.4358387,-0.90087354,-0.12812899
2,0.02,-0.08640748,0.0895784,-0.12848312,-1.4695891,-0.6055202,0.009773844
3,0.03,-0.05469831,0.08524887,-0.023294043,-1.3351988,-0.09437868,0.035430185
4,0.04,-0.027501604,0.07311402,0.089700356,-0.9830349,0.48258355,0.012064588
5,0.05,-0.021769563,0.064942814,0.10787215,-0.9830349,0.48258355,0.012064588
6,0.060000000000000005,-0.028904125,0.060125455,0.13952033,-0.8208502,0.6105598,-0.0106901415
7,0.07,-0.04049017,0.06555261,0.17635176,-0.5045747,0.5699373,0.0050396384
8,0.08,-0.050063897,0.07433361,0.20397532,-0.5045747,0.5699373,0.0050396384
9,0.09,-0.050063897,0.07433361,0.20397532,-0.29535335,0.4173737,0.03145956
10,0.09999999999999999,-0.046892982,0.065491624,0.18116911,0.21242839,-0.052839845,0.1160644
11,0.10999999999999999,-0.041221917,0.040978,0.11817763,0.43554693,-0.28084528,0.17470746
12,0.11999999999999998,-0.034087352,0.031160356,0.08866371,0.529162,-0.37415496,0.20250183
13,0.12999999999999998,-0.034087352,0.031160356,0.08866371,0.56001073,-0.41050145,0.21395555
14,0.13999999999999999,-0.023172084,0.020306062,0.03140427,0.5714644,-0.45799622,0.21655174
15,0.15,-0.021159772,0.01981823,0.021708583,0.5569564,-0.4801401,0.21288654
16,0.16,-0.020184105,0.018842563,0.02414775,0.50946164,-0.52198434,0.1956296
17,0.17,-0.028172374,0.016464375,0.04408794,0.4830417,-0.5710063,0.18478674
18,0.18000000000000002,-0.041587792,0.0037807084,0.07677277,0.4998405,-0.70264775,0.19272798
19,0.19000000000000003,-0.029635875,-0.033538543,0.12311694,0.57619864,-0.9254609,0.21242839
20,0.20000000000000004,0.015549688,-0.057015523,0.15067953,0.7173085,-1.2689198,0.19761491
21,0.21000000000000005,0.015549688,-0.057015523,0.15067953,0.9960158,-1.9190332,0.12614368
22,0.22000000000000006,0.009146876,-0.06256463,0.115128666,1.0606148,-2.1664336,0.08231409
23,0.23000000000000007,1.2664154,-0.8279142,-2.169334,1.1227703,-2.4394903,0.055741455
24,0.24000000000000007,1.2664154,-0.8279142,-2.169334,-0.016340645,-8.380307,-0.13744467
25,0.25000000000000006,1.2664154,-0.8279142,-2.169334,-0.016340645,-8.380307,-0.13744467
26,0.26000000000000006,1.2664154,-0.8279142,-2.169334,-0.016340645,-8.380307,-0.13744467
27,0.2700000000000001,1.8267529,-9.180963,-1.6360711,-1.6169603,-9.197798,5.6436315
28,0.2800000000000001,1.6345465,-1.9887136,-0.59588844,4.1303654,3.0381384,2.4598017
29,0.2900000000000001,1.1904963,-1.3148328,-0.70071167,4.1303654,3.0381384,2.4598017
30,0.3000000000000001,1.1904963,-1.3148328,-0.70071167,2.7872255,0.24816401,0.35735616
31,0.3100000000000001,0.8500496,-1.5751529,-1.1200044,1.4943291,-1.9359847,-0.226631
32,0.3200000000000001,1.0235963,-2.224703,-1.1248827,1.4943291,-1.9359847,-0.226631
33,0.3300000000000001,1.5673475,-3.2129314,-1.2028141,1.4668401,2.4981334,-1.1246029
34,0.34000000000000014,1.861389,-3.1858566,-1.2275106,1.6276505,4.6135597,-1.6522378
35,0.35000000000000014,1.960968,-2.7672956,-1.0016438,0.18799378,6.361551,-2.8221974
36,0.36000000000000015,1.8360827,-2.2495215,-0.56045955,-0.7415904,6.5409923,-3.7082574
37,0.37000000000000016,1.4944775,-1.7896166,-0.25178298,-1.3344351,6.705315,-4.7624583
38,0.38000000000000017,1.4944775,-1.7896166,-0.25178298,-1.3344351,6.705315,-4.7624583
39,0.3900000000000002,0.726018,-1.1401885,-0.067199044,-1.5935947,6.6318583,-5.3937874
40,0.4000000000000002,0.38483953,-0.7732768,-0.0395145,-1.553583,6.245639,-5.035973
41,0.4100000000000002,0.17311986,-0.57863134,-0.03969744,-1.5134187,5.9476895,-4.5830164
42,0.4200000000000002,0.05646671,-0.395145,-0.039209604,-1.4442382,5.6046886,-4.024533
43,0.4300000000000002,-0.037868064,-0.1832424,-0.03738023,-1.2730432,5.056437,-3.5645514
44,0.4400000000000002,-0.04439283,-0.12238518,-0.054759294,-0.83062404,3.4408512,-3.2826371
45,0.45000000000000023,-0.020732917,0.037990022,-0.22757424,-0.5571091,1.4627168,-3.2543845
46,0.46000000000000024,-0.020732917,0.037990022,-0.22757424,-0.38728857,-0.05100725,-3.310737
47,0.47000000000000025,-0.011098208,0.016525354,-0.10683551,-0.2180789,-1.4196508,-3.4116824
48,0.48000000000000026,-0.014452063,-0.007683375,-0.051466417,-0.13545936,-1.9269744,-3.4703255
49,0.49000000000000027,-0.01762298,-0.020732917,-0.016769271,-0.045356743,-2.2573,-3.5882225
50,0.5000000000000002,-0.053600688,-0.04677102,-0.01097625,-0.054061573,-2.191479,-3.632663
51,0.5100000000000002,-0.12525122,-0.07982173,0.009695687,-0.060322944,-2.0376937,-3.600287
52,0.5200000000000002,-0.16726585,-0.09079798,0.020062147,-0.004428773,-1.7553213,-3.487277
53,0.5300000000000002,-0.16427788,-0.081468165,0.01323248,0.017256944,-1.6085609,-3.3947308
54,0.5400000000000003,-0.13372731,-0.054454394,0.017562,0.043066,-1.438435,-3.2362113
55,0.5500000000000003,-0.15171617,-0.05652769,0.012561709,0.06765333,-1.3623822,-3.1435125
56,0.5600000000000003,-0.1653755,-0.066345334,0.01981823,0.08368854,-1.3060299,-3.0138564
57,0.5700000000000003,-0.15817997,-0.06579652,0.03207504,0.08368854,-1.3060299,-3.0138564
58,0.5800000000000003,-0.24409962,-0.09061504,0.055917896,0.1067487,-1.2027937,-2.6911669
59,0.5900000000000003,-0.24409962,-0.09061504,0.055917896,0.14049901,-1.1655309,-2.4379632
60,0.6000000000000003,-0.24409962,-0.09061504,0.055917896,0.19776763,-1.1635456,-2.1806362
61,0.6100000000000003,-0.33715382,-0.11890938,0.068479605,0.27015516,-1.1588113,-1.79854
62,0.6200000000000003,-0.3653262,-0.12153149,0.06335735,0.32620203,-1.0955868,-1.4020884
63,0.6300000000000003,-0.38916904,-0.12366576,0.060186442,0.38789943,-0.9634872,-0.6180429
64,0.6400000000000003,-0.37807086,-0.115799434,0.066040434,0.42256603,-0.8944594,-0.37094793
65,0.6500000000000004,-0.36496034,-0.11177482,0.06860156,0.42256603,-0.8944594,-0.37094793
66,0.6600000000000004,-0.17720546,-0.16641214,-0.006829667,0.50671273,-0.6577492,0.013897184
67,0.6700000000000004,-0.17720546,-0.16641214,-0.006829667,0.5148067,-0.38041633,0.1572978
68,0.6800000000000004,-0.13848369,-0.20440216,-0.057625312,0.4578435,-0.044898596,0.23380867
69,0.6900000000000004,-0.062015813,-0.21232945,-0.09183463,0.3359759,0.32055154,0.27305678
70,0.7000000000000004,0.02786748,-0.23044027,-0.1501917,0.0346666,0.90667677,0.12568553
71,0.7100000000000004,0.085309856,-0.2759917,-0.16805859,-0.13194689,1.2081387,-0.033292156
72,0.7200000000000004,0.085309856,-0.2759917,-0.16805859,-0.13194689,1.2081387,-0.033292156
73,0.7300000000000004,0.5775337,-1.1236022,-0.5405803,-0.13194689,1.2081387,-0.033292156
74,0.7400000000000004,0.5775337,-1.1236022,-0.5405803,-0.13194689,1.2081387,-0.033292156
75,0.7500000000000004,2.016703,-1.7840065,-0.4195977,5.162422,-6.075513,1.7403551
76,0.7600000000000005,3.5840507,-2.3803828,-1.2303767,6.082996,1.6856827,0.046883907
77,0.7700000000000005,6.823447,-3.702716,-2.15726,3.044247,3.741397,2.2983804
78,0.7800000000000005,6.823447,-3.702716,-2.15726,-0.5183192,3.144887,5.2057934
79,0.7900000000000005,7.9555254,-3.8891292,-1.5325284,-1.9107865,2.4312437,4.8440084
80,0.8000000000000005,3.615028,-1.3325168,0.049393125,-4.7073274,3.344029,-1.1523973
81,0.8100000000000005,3.615028,-1.3325168,0.049393125,-4.7073274,3.344029,-1.1523973
82,0.8200000000000005,1.2822698,-0.45953903,0.1565945,-4.2493315,3.4666603,-1.0728321
83,0.8300000000000005,0.92877364,-0.32825086,0.13683724,-4.2493315,3.4666603,-1.0728321
84,0.8400000000000005,0.53814113,-0.14982581,0.15464316,-3.9051087,2.2385156,-0.29245174
85,0.8500000000000005,0.33227548,-0.053051874,0.16208263,-3.9051087,2.2385156,-0.29245174
86,0.8600000000000005,0.33227548,-0.053051874,0.16208263,-3.6990945,1.4908166,0.0067195175
87,0.8700000000000006,0.15738723,0.047807667,0.18586451,-3.411377,0.78969604,0.10567969
88,0.8800000000000006,0.054881252,0.07927292,0.18202282,-3.2441525,0.5222898,0.13713925
89,0.8900000000000006,0.023050126,0.105920814,0.18141302,-2.9749138,0.21884248,0.17684549
90,0.9000000000000006,0.021159772,0.14202048,0.20531686,-2.7634017,-0.026419923,0.14614952
91,0.9100000000000006,0.0069516255,0.18934031,0.23574546,-2.4501805,-0.4089743,0.087201014
92,0.9200000000000006,-0.008415125,0.20537783,0.2519659,-2.158187,-0.8523097,0.035124753
93,0.9300000000000006,-0.027379647,0.21525647,0.33599523,-1.8145752,-1.1520919,0.023365596
94,0.9400000000000006,-0.042441502,0.23318435,0.47008842,-1.0749701,-1.9358319,0.04841107
95,0.9500000000000006,-0.059698608,0.26538134,0.52314025,-0.52183163,-2.524248,0.08979719
96,0.9600000000000006,-0.0866514,0.28087005,0.52997,0.13836098,-3.2120821,0.14935656
97,0.9700000000000006,-0.103359684,0.31434762,0.52064013,0.65301496,-3.7531562,0.20861048
98,0.9800000000000006,-0.103359684,0.31709167,0.4674663,1.7380643,-4.773912,0.3371976
99,0.9900000000000007,-0.11348223,0.36075276,0.4346595,1.9569068,-4.8957796,0.35369098
100,1.0000000000000007,-0.111896776,0.3675824,0.41758534,1.9569068,-4.8957796,0.35369098
101,1.0100000000000007,-0.10915271,0.38544932,0.3764244,2.3512204,-4.884631,0.36835176
102,1.0200000000000007,-0.16531453,0.40557244,0.22165927,2.8214338,-4.0747766,0.3924809
103,1.0300000000000007,-0.33361703,0.39532796,-0.05573496,3.106097,-1.6155858,0.6374379
104,1.0400000000000007,-0.33361703,0.39532796,-0.05573496,3.106097,-1.6155858,0.6374379
105,1.0500000000000007,-0.35459387,0.24409962,-0.2051949,2.8254044,1.8093829,1.0056369
106,1.0600000000000007,-0.2394042,0.14848427,-0.16921718,2.4685066,3.2061262,1.1297953
107,1.0700000000000007,-0.14653294,0.10921369,-0.118604474,2.3173172,3.4406984,1.1279627
108,1.0800000000000007,-0.14653294,0.10921369,-0.118604474,2.090839,3.3098207,1.0499246
109,1.0900000000000007,-0.05573496,0.09274931,-0.12134854,1.9908098,3.1381674,1.0010555
110,1.1000000000000008,-0.05573496,0.09274931,-0.12134854,1.9908098,3.1381674,1.0010555
111,1.1100000000000008,-0.018720604,-0.099152125,-1.0445122,-0.537256,-3.732692,0.9399689
112,1.1200000000000008,0.06366225,-0.05506419,-0.22995245,-1.186453,-6.282902,0.9305005
113,1.1300000000000008,0.19830425,0.056771606,0.33386096,-0.91889405,-6.4489045,0.65026605
114,1.1400000000000008,0.24916087,0.09598121,0.44057447,-0.7319693,-6.2502203,0.48181996
115,1.1500000000000008,0.26318607,0.10323773,0.2506244,-0.33307427,-5.0379586,-0.19960022
116,1.1600000000000008,0.45966098,-0.4622221,-2.235984,-0.8312349,-5.698151,-0.45814893
117,1.1700000000000008,1.4974045,-1.4234368,-5.427634,-0.8312349,-5.698151,-0.45814893
118,1.1800000000000008,1.8590719,-1.3870322,-3.4639826,-4.0263658,0.5002986,-1.3651311
119,1.1900000000000008,1.416607,-1.0201205,-1.6133258,-4.009872,5.072472,-1.6003143
120,1.2000000000000008,0.51509106,-0.97420317,-0.178547,-5.0857587,6.282291,-0.18203785
121,1.2100000000000009,0.51509106,-0.97420317,-0.178547,-5.0857587,6.282291,-0.18203785
122,1.2200000000000009,0.51509106,-0.97420317,-0.178547,-0.018325957,-1.4828753,5.9901447
123,1.2300000000000009,3.1536596,-2.4564238,0.45380697,4.895474,2.8554895,6.7239466
124,1.2400000000000009,4.479408,-2.2320204,-1.2159246,5.285664,0.6365216,2.0193677
125,1.2500000000000009,4.682041,-2.5341723,-1.6093012,3.5396585,-0.047036625,-1.8032742
126,1.260000000000001,4.09097,-2.748209,-1.849864,2.2450824,1.0319041,-3.6509888
127,1.270000000000001,3.2738497,-2.4901452,-1.7355281,1.3498595,3.1117475,-3.9086213
128,1.280000000000001,2.5396605,-1.8976716,-1.2862337,0.4868596,3.642895,-3.4550538
129,1.290000000000001,1.8401682,-1.2195224,-0.6544284,-0.25503623,3.5587482,-2.7974575
130,1.300000000000001,1.3261139,-0.75047064,-0.36081374,-0.37720928,3.5584428,-2.4336872
131,1.310000000000001,1.3261139,-0.75047064,-0.36081374,-0.312763,3.390913,-2.129171
132,1.320000000000001,0.92048055,-0.4969192,-0.15598471,-0.44012842,4.4625235,-1.6658295
133,1.330000000000001,0.75681245,-0.25330746,-0.015915563,-0.48624873,4.7494774,-1.4825699
134,1.340000000000001,0.7431531,-0.19324298,0.04756375,-0.46914452,4.813771,-0.93951076
135,1.350000000000001,0.5653988,-0.12854409,0.045978293,-0.31566462,4.255898,-0.88132584
136,1.360000000000001,0.39679146,-0.09409086,0.02042802,-0.16203201,3.834554,-0.8529206
137,1.370000000000001,0.22623271,-0.03207504,-0.07360186,0.034055736,3.0192015,-0.82986045
138,1.380000000000001,-0.059576645,0.000121958336,-0.275199,0.33964106,0.52274793,-0.8005389
139,1.390000000000001,-0.059576645,0.000121958336,-0.275199,0.33964106,0.52274793,-0.8005389
140,1.400000000000001,-0.086285524,-0.015183813,-0.27093044,0.55756724,-1.5558738,-0.7771733
141,1.410000000000001,-0.1006766,-0.048600398,-0.17903483,0.97402465,-4.2702537,-0.7841983
142,1.420000000000001,-0.1006766,-0.048600398,-0.17903483,0.97402465,-4.2702537,-0.7841983
143,1.430000000000001,-0.102140106,-0.060552314,-0.11945819,1.5028812,-4.2390995,-0.99021256
144,1.440000000000001,-0.09470064,-0.12622687,0.055917896,1.8332067,-3.3452508,-1.2292136
145,1.450000000000001,-0.03506302,-0.12543415,0.03744121,2.1094704,-2.4113905,-1.5273159
146,1.460000000000001,-0.026403978,-0.09488358,-0.021769563,2.2597432,-1.4138476,-1.9329304
147,1.470000000000001,-0.026403978,-0.09488358,-0.021769563,2.2597432,-1.4138476,-1.9329304
148,1.480000000000001,-0.040551145,-0.05213719,-0.04634417,2.0186043,-0.5503896,-2.2401955
149,1.490000000000001,-0.049393125,-0.04634417,-0.03872177,1.8353447,-0.2574797,-2.287843
150,1.500000000000001,-0.08463909,-0.055308107,-0.018476687,1.7090483,-0.07162395,-2.3052528
151,1.5100000000000011,-0.124641426,-0.07110171,-0.008963938,1.5899295,0.09865474,-2.2687535
152,1.5200000000000011,-0.16220458,-0.09903017,0.016342416,1.4556919,0.27122417,-2.1725423
153,1.5300000000000011,-0.24477036,-0.1393374,0.058418043,1.4556919,0.27122417,-2.1725423
154,1.5400000000000011,-0.25257573,-0.13891055,0.059820563,1.2249376,0.57910025,-1.8486309
155,1.5500000000000012,-0.25373432,-0.16336319,0.043539125,1.2249376,0.57910025,-1.8486309
156,1.5600000000000012,-0.26233238,-0.16476572,0.07219934,0.8810204,0.98807454,-1.2027937
157,1.5700000000000012,-0.25178298,-0.14616705,0.07890704,0.8032878,0.79809546,-0.6458373
158,1.5800000000000012,-0.14836231,-0.11488476,0.053234816,0.8032878,0.79809546,-0.6458373
159,1.5900000000000012,-0.109335646,-0.120007,0.052746978,0.7478518,0.5821546,-0.32238412
160,1.6000000000000012,-0.0600035,-0.11976309,0.042502478,0.7125743,0.46135598,-0.20097467
161,1.6100000000000012,-0.0600035,-0.11976309,0.042502478,0.7125743,0.46135598,-0.20097467
162,1.6200000000000012,0.010427438,-0.131715,-0.026343001,0.61468315,0.23869559,-0.13469578
163,1.6300000000000012,0.063540295,-0.1501917,-0.11281146,0.5688683,-0.011911872,-0.13271047
164,1.6400000000000012,0.40166977,-0.1653755,-0.63357353,0.5123632,-2.4313965,-0.09743301
165,1.6500000000000012,0.58790016,-0.22568391,-0.94383556,0.5314528,-7.625736,0.100334615
166,1.6600000000000013,0.58790016,-0.22568391,-0.94383556,0.5314528,-7.625736,0.100334615
167,1.6700000000000013,0.6932722,-1.3813001,-1.7496752,1.3547463,3.3658676,2.4090998
168,1.6800000000000013,0.49301654,-1.5439925,-1.8066907,1.1323915,5.834832,3.0508137
169,1.6900000000000013,0.49301654,-1.5439925,-1.8066907,1.1323915,5.834832,3.0508137
170,1.7000000000000013,8.190478,-4.8019266,0.40788963,1.1323915,5.834832,3.0508137
171,1.7100000000000013,8.801794,-5.058283,0.60284007,-5.7621393,0.55680364,1.8803959
172,1.7200000000000013,5.9357734,-3.4056256,0.19562118,-4.334547,4.0624065,-0.68798697
173,1.7300000000000013,2.5558197,-1.03939,0.17165637,-3.2505667,4.619516,-0.75441855
174,1.7400000000000013,2.5558197,-1.03939,0.17165637,-2.2339342,2.5896106,-1.0100657
175,1.7500000000000013,1.5031365,-0.59930325,0.085980624,-1.5738943,0.49693888,-0.97035944
176,1.7600000000000013,0.6013156,-0.21550037,0.060552314,-1.3768903,-0.32650748,-0.69043046
177,1.7700000000000014,0.6013156,-0.21550037,0.060552314,-1.276403,-0.65836,-0.25793785
178,1.7800000000000014,0.27794304,-0.021586625,0.06610142,-1.1942415,-0.28115073,0.2585487
179,1.7900000000000014,0.21739073,0.015061854,0.055308107,-1.1065824,0.052687127,0.34468073
180,1.8000000000000014,0.17903483,0.046892982,0.01750102,-1.0997101,0.13576481,0.31245756
181,1.8100000000000014,0.07268717,0.0895784,0.0056710625,-1.1398746,0.13545936,0.27672195
182,1.8200000000000014,0.037990022,0.11073817,0.0006707709,-1.2096659,0.15806139,0.24205536
183,1.8300000000000014,0.030672522,0.10049367,0.006097917,-1.299463,0.25625798,0.17989981
184,1.8400000000000014,0.024025792,0.122446164,0.024757542,-1.3439035,0.33292156,0.1217149
185,1.8500000000000014,0.024025792,0.122446164,0.024757542,-1.3458889,0.3643811,0.025045475
186,1.8600000000000014,0.025367333,0.14000817,0.025062438,-1.3428345,0.3556763,-0.08750644
187,1.8700000000000014,0.026769854,0.1565945,0.025367333,-1.3432927,0.34330627,-0.19639318
188,1.8800000000000014,0.023416,0.18244967,0.04841746,-1.3278683,0.268628,-0.43081272
189,1.8900000000000015,0.010061563,0.17129049,0.084883004,-1.2461652,0.14920384,-0.625526
190,1.9000000000000015,0.010061563,0.17129049,0.084883004,-1.2461652,0.14920384,-0.625526
191,1.9100000000000015,-0.11409202,0.19007207,0.3958158,-0.7276932,-0.56306505,-0.7808385
192,1.9200000000000015,-0.13445906,0.21312219,0.47136897,-0.5015204,-0.86299986,-0.7463246
193,1.9300000000000015,-0.19269417,0.26519838,0.5612523,0.27885997,-2.1714733,-0.5002986
194,1.9400000000000015,-0.18653527,0.2915414,0.5658867,1.0644327,-3.032335,-0.27000242
195,1.9500000000000015,-0.16958307,0.33300725,0.5499711,1.4647021,-3.3922875,-0.17913623
196,1.9600000000000015,-0.18049833,0.37099725,0.54984915,2.0557144,-3.7056613,-0.07391469
197,1.9700000000000015,-0.19251123,0.3503863,0.5427146,2.3663392,-3.6986363,0.014966198
198,1.9800000000000015,-0.13647138,0.24312395,0.26239336,3.1638238,-3.0634892,0.21181752
199,1.9900000000000015,-0.12189735,0.19946286,0.14860623,3.1638238,-3.0634892,0.21181752
200,2.0000000000000013,-0.12189735,0.19946286,0.14860623,3.2264376,-2.6151142,0.22999077
201,2.010000000000001,-0.084761046,0.123604774,-0.015793605,3.1859677,-1.969735,0.236863
202,2.020000000000001,-0.084761046,0.123604774,-0.015793605,2.7516425,-0.6763805,0.12843442
203,2.0300000000000007,-0.08098034,0.095615335,-0.08707825,2.617405,-0.40622538,0.1020145
204,2.0400000000000005,-0.09488358,0.061101127,-0.1876329,2.112372,0.48762318,0.035277467
205,2.0500000000000003,-0.10714039,-0.0041465834,-0.63241494,1.643533,1.0754282,0.03726278
206,2.06,-0.10714039,-0.0041465834,-0.63241494,1.643533,1.0754282,0.03726278
207,2.07,-0.16250949,-0.24111164,-0.96286106,-1.2038627,-4.184274,0.5363397
208,2.0799999999999996,-0.091102876,-0.16208263,-0.33886123,-1.779145,-5.046816,0.7443393
209,2.0899999999999994,0.14000817,-0.2704426,-0.825414,-2.2214115,-5.040707,0.9628763
210,2.099999999999999,1.4609389,-1.2755013,-5.1242623,-4.3574543,-11.702346,1.2484559
211,2.109999999999999,2.6149697,-1.4967947,-6.8555217,-5.5437546,-10.540785,1.0600039
212,2.1199999999999988,2.3386729,-1.1956794,-3.2276273,-7.1213145,3.7969856,0.05757405
213,2.1299999999999986,1.996275,-0.6208289,-0.13537374,-6.158591,4.8754683,-0.2771801
214,2.1399999999999983,0.95694613,-0.71601737,0.28367507,-4.0173554,2.7814221,0.7848091
215,2.149999999999998,1.3080641,-1.0154861,-0.29776126,-2.2799017,-1.6597209,2.7310257
216,2.159999999999998,1.7592491,-0.910541,-0.04164877,-2.2799017,-1.6597209,2.7310257
217,2.1699999999999977,1.8784631,-0.68699133,-0.15964346,5.1225634,2.9863675,4.405255
218,2.1799999999999975,1.8784631,-0.68699133,-0.15964346,5.1225634,2.9863675,4.405255
219,2.1899999999999973,3.3117175,-1.1718976,-2.1168308,5.553987,1.15255,1.5564847
220,2.199999999999997,3.3117175,-1.1718976,-2.1168308,5.553987,1.15255,1.5564847
221,2.209999999999997,3.3390973,-1.8415709,-1.5771652,0.3145956,5.0911036,-1.6722436
222,2.2199999999999966,2.8912663,-1.8110813,-0.81010824,0.3145956,5.0911036,-1.6722436
223,2.2299999999999964,2.57887,-1.7783353,-0.34288585,-1.6523905,6.310238,-2.4652994
224,2.239999999999996,2.277023,-1.6079596,0.013049542,-2.0320432,5.013982,-1.6401732
225,2.249999999999996,2.277023,-1.6079596,0.013049542,-2.0320432,5.013982,-1.6401732
226,2.259999999999996,2.3731873,-1.516125,0.19562118,-2.058005,3.4649804,-0.8388707
227,2.2699999999999956,1.8381561,-1.1043937,0.124336526,-2.058005,3.4649804,-0.8388707
228,2.2799999999999954,1.2308036,-0.51698136,0.12269009,-1.7150042,2.7867672,-1.1911873
229,2.289999999999995,0.8711484,-0.37447307,0.13000758,-1.5877914,2.7617218,-1.3406965
230,2.299999999999995,0.5633255,-0.20976834,0.10201815,-1.4376713,2.7027733,-1.3848315
231,2.3099999999999947,0.3714241,-0.12421457,0.08537084,-1.1754575,2.5274549,-1.3762794
232,2.3199999999999945,0.20025559,-0.06884548,0.06347931,-1.0178542,2.3990204,-1.3344351
233,2.3299999999999943,0.019513333,-0.011098208,0.021037813,-0.54290646,1.7150042,-1.2209669
234,2.339999999999994,-0.029696856,0.00024391667,0.010122542,-0.399964,1.4364496,-1.2139419
235,2.349999999999994,-0.09884723,-0.023720896,-0.030184686,1.430341,-1.822211,-1.3860532
236,2.3599999999999937,-0.100432694,-0.072321296,0.007378479,2.5589144,-2.9530754,-1.6433803
237,2.3699999999999934,-0.11128698,-0.09488358,-0.00951275,2.9918652,-2.826168,-1.8820758
238,2.3799999999999932,-0.10970152,-0.0837244,-0.033477563,2.866027,-2.531731,-1.9013181
239,2.389999999999993,-0.10970152,-0.0837244,-0.033477563,2.7172813,-2.310445,-1.8958203
240,2.399999999999993,-0.09726177,-0.08713923,-0.058174126,2.515085,-2.0077612,-1.8628336
241,2.4099999999999926,-0.06250364,-0.09183463,-0.06799178,2.515085,-2.0077612,-1.8628336
242,2.4199999999999924,-0.07537025,-0.10354263,-0.04408794,2.3848178,-1.8035797,-1.8645134
243,2.429999999999992,-0.07537025,-0.10354263,-0.04408794,1.9836322,-1.1873693,-1.9271271
244,2.439999999999992,-0.13744704,-0.11762882,-0.062076796,1.9292651,-1.122923,-1.927738
245,2.4499999999999917,-0.102140106,-0.12281204,-0.08116327,1.3191634,-0.46043968,-1.9404135
246,2.4599999999999915,-0.1323248,-0.13275166,-0.07841921,1.0199922,-0.11071932,-1.9326249
247,2.4699999999999913,-0.19885308,-0.14427671,-0.04677102,0.6432411,0.35827246,-1.8231273
248,2.479999999999991,-0.21684194,-0.15122834,-0.04835648,0.47067168,0.6062838,-1.7322611
249,2.489999999999991,-0.2587346,-0.16848545,-0.040246252,0.15424347,1.1087204,-1.5076154
250,2.4999999999999907,-0.26501545,-0.15525296,-0.003963646,-0.0071776668,1.4216361,-1.3387111
251,2.5099999999999905,-0.24245316,-0.13360536,0.01695221,-0.10949759,1.7008016,-1.1765264
252,2.5199999999999902,-0.19592606,-0.12110463,0.03433127,-0.17455475,1.9216293,-1.0102184
253,2.52999999999999,-0.17677861,-0.11012838,0.062686585,-0.1470658,1.8889481,-0.8558222
254,2.53999999999999,-0.16476572,-0.10031073,0.07628494,-0.080634214,1.7540996,-0.73364913
255,2.5499999999999896,-0.13208087,-0.08549279,0.06475988,0.057726767,1.4538593,-0.5468771
256,2.5599999999999894,-0.021037813,-0.07183346,0.0140252095,0.18616119,1.0483974,-0.3914119
257,2.569999999999989,-0.021037813,-0.07183346,0.0140252095,0.18616119,1.0483974,-0.3914119
258,2.579999999999989,0.0015244792,-0.06543065,-0.00042685418,0.49128836,-0.31902438,-0.2921463
259,2.5899999999999888,0.500578,-0.18135203,-0.620707,2.7705793,-9.571495,1.2075279
260,2.5999999999999885,0.500578,-0.18135203,-0.620707,2.7705793,-9.571495,1.2075279
261,2.6099999999999883,0.2812969,-0.4724056,-0.5486296,4.011552,-14.187498,1.7811303
262,2.619999999999988,0.68766207,-0.8376099,-1.0600618,5.6731057,-9.511783,1.8556559
263,2.629999999999988,0.6061329,-1.5108808,-1.4292907,8.500954,8.629693,4.369061
264,2.6399999999999877,0.6061329,-1.5108808,-1.4292907,8.500954,8.629693,4.369061
265,2.6499999999999875,0.6061329,-1.5108808,-1.4292907,8.500954,8.629693,4.369061
266,2.6599999999999873,0.6061329,-1.5108808,-1.4292907,8.500954,8.629693,4.369061
267,2.669999999999987,7.4480567,-3.9330955,-0.45764863,-6.1372104,-0.06780604,1.2848023
268,2.679999999999987,6.223107,-3.4765441,-0.5769239,-7.3742127,3.828598,-1.3326025
269,2.6899999999999866,4.6767364,-1.9398693,-0.04116094,-5.571091,5.52268,-0.8315403
270,2.6999999999999864,3.1824417,-1.2126927,0.39642558,-4.128838,2.8561006,-0.96196
271,2.709999999999986,1.8568767,-0.7705327,0.40008432,-3.192229,0.66156703,-0.7255552
272,2.719999999999986,1.4178876,-0.588327,0.3208724,-2.9332223,0.12644911,-0.539394
273,2.7299999999999858,0.9497505,-0.34337372,0.24397767,-2.5205827,-0.2817616,-0.19257528
274,2.7399999999999856,0.79919297,-0.2757478,0.20068243,-1.949271,-0.15668693,0.18478674
275,2.7499999999999853,0.38459563,-0.12543415,0.13525179,-1.949271,-0.15668693,0.18478674
276,2.759999999999985,0.24989262,-0.047746688,0.15726528,-1.6468927,-0.020463986,0.24358252
277,2.769999999999985,0.04189269,0.041221917,0.041038983,-1.5541939,0.026572637,0.2415972
278,2.7799999999999847,0.02494048,0.042075627,0.030184686,-1.4419475,0.13454308,0.18310685
279,2.7899999999999845,0.02494048,0.042075627,0.030184686,-1.4419475,0.13454308,0.18310685
280,2.7999999999999843,0.004085604,0.040917024,0.018781584,-1.4869987,0.12812899,0.16325374
281,2.809999999999984,0.007378479,0.055552024,0.021525647,-1.4978416,0.12568553,0.13515393
282,2.819999999999984,0.00042685418,0.08329754,0.018659625,-1.5583172,0.11652254,0.00015271631
283,2.8299999999999836,0.002561125,0.11988505,0.027013771,-1.5942056,0.08552113,-0.10262536
284,2.8399999999999834,-0.0127446465,0.122324206,0.04634417,-1.6458237,0.09590584,-0.29138273
285,2.849999999999983,-0.018781584,0.12427554,0.064272046,-1.6568192,0.24816401,-0.49037206
286,2.859999999999983,-0.01975725,0.11744587,0.066772185,-1.6791159,0.3735441,-0.6133087
287,2.869999999999983,-0.0807974,0.104152426,0.13750802,-1.6218473,0.5348125,-0.7725918
288,2.8799999999999826,-0.07835823,0.105615914,0.13848369,-1.5984817,0.54092115,-0.79336125
289,2.8899999999999824,-0.090737,0.08890763,0.26233238,-1.2819008,0.5537493,-0.9051496
290,2.899999999999982,-0.10104248,0.11012838,0.3579477,-0.926988,0.66691214,-0.98899084
291,2.909999999999982,-0.14330104,0.23720895,0.5640573,-0.6365216,0.6918049,-1.0668762
292,2.9199999999999817,-0.20915854,0.23879443,0.570704,-0.009010263,0.77854776,-1.2136365
293,2.9299999999999815,-0.20915854,0.23879443,0.570704,0.72082096,0.8197812,-1.2250903
294,2.9399999999999813,-0.23172083,0.21001224,0.4548436,1.4184291,0.6559166,-1.1184943
295,2.949999999999981,-0.27129632,0.19019403,0.27684543,1.8139644,0.43401974,-1.0172434
296,2.959999999999981,-0.31014004,0.14921603,0.18775485,1.9766072,0.3462079,-0.8483391
297,2.9699999999999807,-0.17677861,0.12281204,0.07097975,2.133905,0.15088372,-0.6824892
298,2.9799999999999804,-0.18226673,0.107628234,0.045795355,2.0992384,0.150731,-0.6337727
299,2.9899999999999802,-0.17318083,0.06555261,-0.009146876,2.0992384,0.150731,-0.6337727
300,2.99999999999998,-0.15939954,0.052442085,-0.016647313,2.03861,0.21639901,-0.60139686
301,3.00999999999998,-0.15939954,0.052442085,-0.016647313,2.03861,0.21639901,-0.60139686
302,3.0199999999999796,-0.12958074,0.0395145,-0.01762298,1.924531,0.3987423,-0.6200282
303,3.0299999999999794,-0.070065066,0.0082321875,-0.005000292,1.86207,0.7461719,-0.6450737
304,3.039999999999979,-0.084212236,-0.0064637917,0.005793021,1.8338175,1.057255,-0.61727935
305,3.049999999999979,-0.08299265,-0.027440626,-0.0027440626,1.8167132,1.3075571,-0.53878313
306,3.0599999999999787,0.14994776,-0.15567982,-0.3204455,1.7600555,1.231657,-0.4017966
307,3.0699999999999785,2.036765,-0.92865175,-2.5621617,2.9049697,-21.305605,2.5815165
308,3.0799999999999783,2.2673883,-0.2613567,-1.8987083,1.5653422,-24.904976,2.6148088
309,3.089999999999978,1.2132416,0.3077009,-1.4620975,1.5653422,-24.904976,2.6148088
310,3.099999999999978,3.29068,-0.47203976,-6.0987096,-1.1259774,0.09437868,3.5789068
311,3.1099999999999777,2.9706612,-0.6250365,-4.891017,-0.7131852,10.106613,4.0822597
312,3.1199999999999775,3.7275345,-0.32367742,-0.30202982,-1.877647,2.597399,1.6982054
313,3.1299999999999772,3.7275345,-0.32367742,-0.30202982,-1.7385225,1.2200506,-0.77381355
314,3.139999999999977,3.3601959,-0.4675273,-0.08366342,-1.7385225,1.2200506,-0.77381355
315,3.149999999999977,2.894742,-0.6991871,-0.14836231,-0.581391,-1.2270756,-2.9132164
316,3.1599999999999766,2.6352148,-0.8756608,-0.2720281,2.3675609,2.0044017,-4.279264
317,3.1699999999999764,1.0992105,-0.38532734,-0.05567398,3.4031303,6.914231,-4.932737
318,3.179999999999976,0.62149966,-0.19970676,-0.069577225,3.1082351,8.121912,-4.2642975
319,3.189999999999976,0.5107005,-0.18397415,-0.10982348,2.851977,8.556542,-3.9570324
320,3.1999999999999758,1.6086304,0.02713573,-0.36166742,2.4344506,8.693987,-3.3423493
321,3.2099999999999755,2.7502215,0.19824328,-0.56527686,0.9779953,7.678729,-2.0236437
322,3.2199999999999753,2.462034,-0.016708292,-0.17812014,-2.5744915,4.5442266,0.6032294
323,3.229999999999975,3.1650627,-0.09463967,0.0043295207,-4.1037927,2.1804836,0.8539896
324,3.239999999999975,3.3097055,0.018964522,0.047746688,-4.6732717,0.47540587,0.14538592
325,3.2499999999999747,2.7592463,0.03719729,0.24867305,-4.2919393,-1.0833695,-1.4263704
326,3.2599999999999745,2.0714014,0.06006448,0.19275515,-3.7606392,-1.1737776,-2.0819814
327,3.2699999999999743,1.0455488,0.10250599,0.04841746,-2.479044,0.1414153,-2.1809416
328,3.279999999999974,0.66918534,0.11122601,0.0016464376,-1.4524848,1.1904236,-2.091908
329,3.289999999999974,0.1686074,-0.004695396,-0.081346214,-0.31535918,1.8284724,-2.1558962
330,3.2999999999999736,0.1686074,-0.004695396,-0.081346214,1.0251846,1.430341,-2.3231206
331,3.3099999999999734,0.047929626,-0.06043036,-0.066772185,1.6679676,0.71776664,-2.3968825
332,3.319999999999973,-0.06896744,-0.12640981,-0.032562874,2.3745859,-0.5459608,-2.3787093
333,3.329999999999973,-0.07969977,-0.11573846,-0.03719729,2.3025038,-1.0051788,-2.2389739
334,3.3399999999999728,-0.06866254,-0.115799434,-0.07701669,2.0616703,-0.91874135,-2.2004893
335,3.3499999999999726,-0.06866254,-0.115799434,-0.07701669,2.0616703,-0.91874135,-2.2004893
336,3.3599999999999723,-0.09140777,-0.12086072,-0.08354146,1.8904753,-0.8257371,-2.187203
337,3.369999999999972,-0.16080207,-0.13598356,-0.106957465,1.372767,-0.4298964,-2.1566598
338,3.379999999999972,-0.11372615,-0.12665373,-0.040795065,1.1333077,-0.26893342,-2.0450242
339,3.3899999999999717,-0.12384869,-0.13939838,-0.043661084,1.1333077,-0.26893342,-2.0450242
340,3.3999999999999715,-0.1554359,-0.16348514,-0.040246252,0.8671232,-0.22143865,-1.8377881
341,3.4099999999999713,-0.3302022,-0.31507936,-0.020671938,0.7111999,-0.2742785,-1.496009
342,3.419999999999971,-0.38782752,-0.37557068,-0.07408969,0.5864306,-0.27580565,-1.112691
343,3.429999999999971,-0.51271284,-0.43886706,-0.12720254,0.3510948,-0.42638394,-0.46883908
344,3.4399999999999706,-0.60223025,-0.4905774,-0.10799411,0.15363261,-0.5839872,0.1704314
345,3.4499999999999704,-0.56478906,-0.4791133,-0.10677453,-0.01817324,-0.7147123,0.80970186
346,3.45999999999997,-0.4547826,-0.46490517,-6.0979168e-05,-0.1516473,-0.7657196,1.4892895
347,3.46999999999997,-0.3670946,-0.46179524,0.050429773,-0.14721853,-0.7799222,1.7976238
348,3.47999999999997,-0.15189911,-0.40410894,-0.011951917,-0.13439035,-0.7817548,2.1268802
349,3.4899999999999696,-0.04744179,-0.3621553,-0.050856624,-0.25320363,-0.77640975,2.110234
350,3.4999999999999694,-0.011159187,-0.3463007,-0.032684833,-0.25320363,-0.77640975,2.110234
351,3.509999999999969,-0.005061271,-0.32507995,0.02853825,-0.41218132,-0.754724,1.8338175
352,3.519999999999969,0.08945644,-0.25800288,0.09494456,-0.3417791,-0.8257371,1.4112514
353,3.5299999999999687,0.111165024,-0.23787974,0.10464026,-0.3417791,-0.8257371,1.4112514
354,3.5399999999999685,0.111165024,-0.23787974,0.10464026,-0.28115073,-0.8903361,1.1806498
355,3.5499999999999683,0.13897152,-0.19684075,0.079089984,-0.23518312,-0.945314,0.946383
356,3.559999999999968,0.15811898,-0.18769388,0.009939604,-0.34513888,-0.7377725,0.6243043
357,3.569999999999968,0.19220634,-0.24275808,-0.054820273,-0.5319109,-0.2941316,0.45448375
358,3.5799999999999677,0.787363,-0.43661085,-0.8324875,-0.8668178,-0.117744274,0.41783184
359,3.5899999999999674,0.787363,-0.43661085,-0.8324875,2.1649065,-3.4666603,1.6581937
360,3.5999999999999672,2.1770172,-0.2497097,-3.0722525,2.1649065,-3.4666603,1.6581937
361,3.609999999999967,2.1770172,-0.2497097,-3.0722525,2.1649065,-3.4666603,1.6581937
362,3.619999999999967,2.1770172,-0.2497097,-3.0722525,2.1649065,-3.4666603,1.6581937
363,3.6299999999999666,8.867835,-1.0762823,-0.48393068,-5.6541686,0.6365216,1.7510452
364,3.6399999999999664,7.691851,-0.39709634,-0.5635085,-6.81466,1.7411187,0.18295415
365,3.649999999999966,5.7882037,0.18098617,-0.09018819,-6.200435,4.142583,-1.155299
366,3.659999999999966,3.9265096,0.3284948,-0.0629305,-5.6634846,3.741397,-1.5306755
367,3.6699999999999657,1.7353451,0.25861263,0.29221216,-4.1108174,0.13942999,-1.5293012
368,3.6799999999999655,1.170678,0.21732976,0.48880902,-3.34464,-0.81183994,-1.0312933
369,3.6899999999999653,0.80212,0.20440216,0.5066759,-2.6225972,-0.93951076,-0.5196936
370,3.699999999999965,0.6457084,0.2680644,0.46295384,-1.7950275,-0.77854776,-0.04046982
371,3.709999999999965,0.47063723,0.27141827,0.32129923,-1.7950275,-0.77854776,-0.04046982
372,3.7199999999999647,0.12317792,0.22611076,0.090737,-0.46960264,-0.32696563,0.01740966
373,3.7299999999999645,0.12317792,0.22611076,0.090737,-0.46960264,-0.32696563,0.01740966
374,3.7399999999999642,0.014269125,0.17555903,0.046405144,-0.13591751,-0.16997325,-0.07895433
375,3.749999999999964,0.014269125,0.17555903,0.046405144,-0.13591751,-0.16997325,-0.07895433
376,3.759999999999964,0.008354146,0.17116854,0.05469831,-0.07452556,-0.14294247,-0.14355333
377,3.7699999999999636,-0.0031709166,0.13994719,0.05646671,0.039858956,0.046578474,-0.45433104
378,3.7799999999999634,-0.00048783334,0.11799469,0.04311227,0.072540246,0.2611449,-0.6702719
379,3.789999999999963,-0.004268542,0.11012838,0.03439225,0.09941832,0.4708244,-0.93767816
380,3.799999999999963,-0.008171208,0.110616215,0.03286777,0.11804971,0.5525276,-1.0774136
381,3.8099999999999627,-0.053966567,0.11616532,0.027989438,0.13698652,0.6462954,-1.3052663
382,3.8199999999999625,-0.08933448,0.11293342,0.012073875,0.1385137,0.69989884,-1.4143058
383,3.8299999999999623,-0.08933448,0.11293342,0.012073875,0.1385137,0.69989884,-1.4143058
384,3.839999999999962,-0.15458219,0.11122601,0.052381106,0.18341228,0.7425067,-1.6136005
385,3.849999999999962,-0.25312454,0.12409261,0.15452121,0.41538838,0.7867944,-1.5425875
386,3.8599999999999617,-0.316116,0.13750802,0.207817,0.710589,0.81214535,-1.3475688
387,3.8699999999999615,-0.33026317,0.13128816,0.26086888,1.4931073,0.7800749,-0.85918194
388,3.8799999999999613,-0.33026317,0.13128816,0.26086888,1.4931073,0.7800749,-0.85918194
389,3.889999999999961,-0.30739596,0.11976309,0.26904008,1.8677205,0.9755518,-0.6533204
390,3.899999999999961,-0.20976834,0.030672522,0.110311314,2.5422685,1.5554156,-0.2967278
391,3.9099999999999606,-0.16379005,-0.008841979,0.02207446,2.6306913,1.6707164,-0.2782491
392,3.9199999999999604,-0.16379005,-0.008841979,0.02207446,2.6306913,1.6707164,-0.2782491
393,3.92999999999996,-0.1460451,-0.055186145,-0.17208321,2.492483,1.4306464,-0.22678372
394,3.93999999999996,-0.14574021,-0.07537025,-0.24007498,2.3484714,1.0050261,-0.15745051
395,3.9499999999999598,-0.1276294,-0.11128698,-0.37343642,2.067168,-0.3013093,-0.0033597588
396,3.9599999999999596,-0.06579652,-0.1627534,-0.5846682,1.8619173,-2.0636556,0.112704635
397,3.9699999999999593,-0.024757542,-0.17988855,-0.5309456,1.7145461,-4.3432517,0.2434298
398,3.979999999999959,-0.021403689,-0.1753151,-0.48027194,1.6937766,-4.8548517,0.27488935
399,3.989999999999959,-0.032440916,-0.12128756,-0.18086421,1.6937766,-4.8548517,0.27488935
400,3.9999999999999587,0.004085604,-0.055186145,-0.018537667,1.7313448,-6.6915708,0.23854288
401,4.009999999999959,0.011220166,-0.028172374,0.029452939,1.7637206,-6.346126,0.11866058
402,4.019999999999959,0.08335852,0.0062808543,0.0073175007,1.8133535,-5.7348027,-0.16371189
403,4.0299999999999585,0.62308514,-0.10409144,-1.0794532,1.8133535,-5.7348027,-0.16371189
404,4.039999999999958,1.4452672,0.20970736,-3.3878808,1.8133535,-5.7348027,-0.16371189
405,4.049999999999958,2.417458,0.72668874,-6.3025017,-0.26297748,-0.44348818,-0.40408736
406,4.059999999999958,1.9541993,0.90090626,-4.006697,-1.5045611,4.9533534,-0.44638976
407,4.069999999999958,1.0839658,1.0729895,-0.86901414,-4.3921213,1.1012373,1.0743593
408,4.079999999999957,1.0839658,1.0729895,-0.86901414,-4.3921213,1.1012373,1.0743593
409,4.089999999999957,4.3801336,0.9745081,-0.83139,-4.3921213,1.1012373,1.0743593
410,4.099999999999957,2.3847733,1.3209916,0.23495273,2.6422975,3.0949488,1.1044444
411,4.109999999999957,3.4370296,0.41484126,-1.6399736,2.637258,2.3974934,-1.5070046
412,4.119999999999957,3.480996,0.31050593,-2.034448,2.6450465,2.7667613,-1.8474092
413,4.129999999999956,3.0865216,0.43496442,-1.6944282,2.6450465,2.7667613,-1.8474092
414,4.139999999999956,3.0417628,0.49655336,-1.3930081,2.021964,3.859141,-1.6992744
415,4.149999999999956,3.0511537,0.43398872,-1.3195282,-0.067500606,3.0952542,-0.96669424
416,4.159999999999956,2.921024,0.3146525,-1.0562202,-0.98349303,2.808911,-0.84772825
417,4.1699999999999555,2.921024,0.3146525,-1.0562202,-1.2965615,2.4611762,-1.1113166
418,4.179999999999955,1.919868,0.26879618,-0.52966505,-1.4691309,2.1691825,-1.3680327
419,4.189999999999955,1.2362306,0.24245316,-0.29251707,-1.5563319,2.0108156,-1.5465581
420,4.199999999999955,0.7302255,0.18812074,-0.152204,-1.5563319,2.0108156,-1.5465581
421,4.209999999999955,0.22787915,0.06610142,-0.0031709166,-1.5722144,2.8029552,-1.5413657
422,4.2199999999999545,0.08902958,0.21635409,0.00085370836,-1.5877914,3.4045048,-1.557401
423,4.229999999999954,0.053600688,0.23714797,-0.12689765,-1.6771306,3.6960402,-1.3107641
424,4.239999999999954,0.05652769,0.17879093,-0.093054205,-1.7806722,3.8973203,-1.0517572
425,4.249999999999954,0.0018903542,0.12451946,-0.052442085,-1.7683022,4.001473,-0.81107634
426,4.259999999999954,-0.041953668,0.07994369,-0.178547,-1.7683022,4.001473,-0.81107634
427,4.269999999999953,-0.120921694,0.019330395,-0.39203507,-1.1378893,1.7450893,-0.7134906
428,4.279999999999953,-0.14263028,-0.050429773,-0.3743511,-0.7145596,-0.03573562,-0.7976373
429,4.289999999999953,-0.11207971,-0.14067894,-0.3003224,-0.09773844,-2.3107505,-0.8541423
430,4.299999999999953,-0.06451596,-0.17031482,-0.21031716,0.44608435,-3.7927096,-0.8017606
431,4.3099999999999525,0.009024917,-0.09817646,-0.049637042,0.97142845,-4.1248674,-0.7359399
432,4.319999999999952,0.009024917,-0.09817646,-0.049637042,0.97142845,-3.113122,-0.8061894
433,4.329999999999952,-0.0060369377,-0.082199916,-0.062686585,0.97142845,-3.113122,-0.8061894
434,4.339999999999952,0.023659917,-0.07183346,-0.06786981,0.8382598,-2.8113546,-0.838718
435,4.349999999999952,0.022135438,-0.07085779,-0.06347931,0.7060075,-2.4680483,-0.8863655
436,4.3599999999999515,0.037624147,-0.056588665,-0.061101127,0.4981606,-1.8249599,-0.9599747
437,4.369999999999951,0.009695687,-0.04311227,-0.052746978,0.13133603,-0.83031857,-1.1265882
438,4.379999999999951,-0.02128173,-0.045612417,-0.023781875,-0.027030786,-0.43233988,-1.161102
439,4.389999999999951,-0.023903834,-0.050917607,-0.0028050416,-0.027030786,-0.43233988,-1.161102
440,4.399999999999951,-0.023903834,-0.050917607,-0.0028050416,-0.2576324,0.40973786,-1.1635456
441,4.40999999999995,-0.04744179,-0.07097975,0.023537958,-0.29871312,0.65118235,-1.1488848
442,4.41999999999995,-0.04018527,-0.08549279,0.036953375,-0.3378085,1.0891727,-1.1142182
443,4.42999999999995,-0.02414775,-0.099518,0.050429773,-0.35613444,1.3782647,-1.1033753
444,4.43999999999995,-0.022135438,-0.119946025,0.055552024,-0.35613444,1.3782647,-1.1033753
445,4.4499999999999496,-0.027501604,-0.1253122,0.057503358,-0.35323283,1.7690657,-1.0450377
446,4.459999999999949,-0.0127446465,-0.11897036,0.040551145,-0.36483926,1.8141171,-1.0134255
447,4.469999999999949,0.014635001,-0.12122658,0.038416874,-0.41263947,1.8848248,-0.8904888
448,4.479999999999949,0.041404855,-0.13958131,0.048173543,-0.42531493,1.8811595,-0.82695884
449,4.489999999999949,0.08774903,-0.12903193,0.040673107,-0.41798455,1.8544341,-0.78877974
450,4.4999999999999485,0.1797666,-0.11433593,0.042868353,-0.35613444,1.6924021,-0.8733846
451,4.509999999999948,0.26318607,-0.11238461,0.032501895,-0.3034473,1.5496124,-1.1000156
452,4.519999999999948,0.30568856,-0.115128666,0.024696562,-0.26099217,1.4494305,-1.3245085
453,4.529999999999948,0.30568856,-0.115128666,0.024696562,-0.26099217,1.4494305,-1.3245085
454,4.539999999999948,0.354228,-0.11488476,-0.005549104,-0.21365012,1.2831224,-1.6513215
455,4.549999999999947,0.47521064,0.007866313,0.3577038,1.3600914,-1.9376645,-1.5755742
456,4.559999999999947,0.66820973,0.0629305,0.1323248,4.1447206,-7.47638,-0.8526152
457,4.569999999999947,0.66820973,0.0629305,0.1323248,4.1447206,-7.47638,-0.8526152
458,4.579999999999947,0.66820973,0.0629305,0.1323248,4.1447206,-7.47638,-0.8526152
459,4.589999999999947,8.387319,3.134756,-2.479047,-2.3501513,1.9055941,3.7925568
460,4.599999999999946,8.4724455,3.1917717,-2.1967134,-3.0686815,1.1959214,3.179248
461,4.609999999999946,4.8881507,2.0507903,0.04884431,-5.682727,-1.5792394,-0.7162395
462,4.619999999999946,3.1089618,1.4670368,0.3471544,-5.778785,-1.9431623,-1.1948525
463,4.629999999999946,1.914136,1.220925,0.3225798,-5.568342,-1.6937766,-1.0514518
464,4.6399999999999455,1.0349385,0.92572474,0.09128582,-5.049259,-0.79244494,-0.52213705
465,4.649999999999945,0.7124196,0.81651103,-0.06067427,-4.728097,-0.27488935,-0.1956296
466,4.659999999999945,0.37544873,0.5605815,-0.1861694,-3.9402335,-0.14355333,0.22724187
467,4.669999999999945,0.34191018,0.4343546,0.026099084,-3.2507193,-0.5381723,0.3494149
468,4.679999999999945,0.24275808,0.24428254,0.2125734,-2.3787093,-0.83169305,0.35979962
469,4.689999999999944,0.24275808,0.24428254,0.2125734,-1.8185458,-0.87689704,0.33536503
470,4.699999999999944,0.10921369,0.105493955,0.19251123,-0.89751375,-0.788627,0.05085453
471,4.709999999999944,0.056710627,0.07549221,0.19915795,-0.63606346,-0.7554876,-0.082161374
472,4.719999999999944,0.010610376,0.05372265,0.19019403,-0.31749722,-0.64751714,-0.22617286
473,4.729999999999944,-0.012805625,0.025672229,0.16007032,-0.08506299,-0.55573463,-0.30955598
474,4.739999999999943,-0.012805625,0.025672229,0.16007032,-0.08506299,-0.55573463,-0.30955598
475,4.749999999999943,-0.040917024,-0.014574022,0.11744587,0.3034473,-0.35811976,-0.3923282
476,4.759999999999943,-0.054820273,-0.020062147,0.099822894,0.4173737,-0.3587306,-0.39278635
477,4.769999999999943,-0.067077085,-0.023537958,0.10994543,0.54428095,-0.44944412,-0.38912117
478,4.7799999999999425,-0.073540874,-0.025001459,0.12110463,0.65118235,-0.49754974,-0.3846924
479,4.789999999999942,-0.073540874,-0.025001459,0.12110463,0.7680103,-0.5468771,-0.38973203
480,4.799999999999942,-0.11207971,-0.036282603,0.18080322,0.7680103,-0.5468771,-0.38973203
481,4.809999999999942,-0.13653237,-0.039819397,0.19037697,1.1696543,-0.5332854,-0.38362336
482,4.819999999999942,-0.13823977,-0.040673107,0.21763465,1.3274102,-0.4908302,-0.40851614
483,4.8299999999999415,-0.13421515,-0.038599815,0.25275865,1.4926492,-0.4082107,-0.49586987
484,4.839999999999941,-0.12567806,-0.025306353,0.2701987,1.6739235,-0.2828306,-0.6432411
485,4.849999999999941,-0.124031626,-0.013537374,0.2900779,1.89918,-0.07422013,-0.93752545
486,4.859999999999941,-0.1243975,-0.008110229,0.17549805,2.1285598,0.17715092,-1.0656544
487,4.869999999999941,-0.1243975,-0.008110229,0.17549805,2.2699752,0.3268129,-1.1388055
488,4.87999999999994,-0.08537084,-0.017257104,0.12775135,2.3313673,0.38927388,-1.2512047
489,4.88999999999994,-0.03664848,-0.039148625,0.0471369,2.324495,0.4111123,-1.3639094
490,4.89999999999994,-0.03664848,-0.039148625,0.0471369,2.2678373,0.4700608,-1.5981762
491,4.90999999999994,-0.041404855,-0.048600398,-0.009817646,2.0815234,0.60994893,-1.9546161
492,4.9199999999999395,-0.048173543,-0.046283185,-0.019208437,1.948202,0.67363167,-2.0828977
493,4.929999999999939,-0.048173543,-0.046283185,-0.019208437,1.948202,0.67363167,-2.0828977
494,4.939999999999939,-0.05329579,-0.053173836,-0.036221627,1.7211128,0.675617,-2.1981986
495,4.949999999999939,-0.04323423,-0.07219934,-0.05585692,1.613906,0.61636305,-2.2230914
496,4.959999999999939,-0.040124293,-0.06835765,-0.07829725,1.4388931,0.43096542,-2.2258403
497,4.9699999999999385,-0.040124293,-0.06835765,-0.07829725,1.4388931,0.43096542,-2.2258403
498,4.979999999999938,-0.034636166,-0.06006448,-0.09683492,1.1203269,0.10919216,-2.20446
499,4.989999999999938,0.006341833,-0.029696856,-0.1167751,0.60139686,-0.44089198,-2.195755
500,4.999999999999938,0.02853825,-0.005183229,-0.11201873,0.34147367,-0.72082096,-2.2096524
501,5.009999999999938,0.010000584,1.191289,1.7000382,5.9308906,-11.75885,0.1049161
502,5.019999999999937,-0.20312162,0.46057564,-0.4763083,10.556667,-21.24513,0.9779953
503,5.029999999999937,1.3359317,3.655152,-13.669211,6.9021664,2.7090347,3.3484578
504,5.039999999999937,1.3359317,3.655152,-13.669211,6.9021664,2.7090347,3.3484578
505,5.049999999999937,0.4533801,1.6496694,-0.83956116,-4.5851545,5.824753,7.958505
506,5.0599999999999365,1.639181,0.5846073,0.907553,-4.2137485,-3.4610097,8.340296
507,5.069999999999936,1.8812683,0.63351256,0.79486346,-1.9443841,-3.6760342,6.82871
508,5.079999999999936,5.2984796,2.2786694,0.412707,-0.07345655,0.729984,5.4056993
509,5.089999999999936,6.872108,2.7712593,0.24452646,0.4812091,4.2389464,0.69226307
510,5.099999999999936,6.5209904,3.055483,-0.10360361,-0.23609942,3.8368447,-1.3805555
511,5.1099999999999355,4.654113,1.9240146,0.029513916,-1.6374242,7.3102245,-0.7162395
512,5.119999999999935,2.944623,1.229523,0.25922245,-1.6374242,7.3102245,-0.7162395
513,5.129999999999935,2.020118,0.8712703,0.060918186,1.5338826,5.8131466,-1.444849
514,5.139999999999935,1.4686223,0.7016263,-0.110189356,2.467132,3.7669005,-1.6557503
515,5.149999999999935,0.85236686,0.47106406,-0.45606318,2.8008173,2.707202,-1.6027577
516,5.159999999999934,0.53936076,0.30861557,-0.7959001,2.3871086,3.083037,-1.5370897
517,5.169999999999934,0.53936076,0.30861557,-0.7959001,1.7696766,3.3620496,-1.6719382
518,5.179999999999934,0.26458862,0.021525647,-0.7351648,1.2669345,3.1351132,-1.9101756
519,5.189999999999934,0.18995011,-0.037075333,-0.644062,0.95111716,2.7824912,-2.1114557
520,5.199999999999934,0.13183697,-0.09933506,-0.49576062,0.48792863,1.6792686,-2.5367706
521,5.209999999999933,0.09890821,-0.14872819,-0.3405077,0.22510384,0.889878,-2.834873
522,5.219999999999933,0.07896802,-0.16982698,-0.18257163,0.11927144,0.4372268,-3.0123293
523,5.229999999999933,0.064942814,-0.19684075,-0.07665081,0.081855945,0.011911872,-3.1783319
524,5.239999999999933,0.064942814,-0.19684075,-0.07665081,0.08659015,-0.22617286,-3.2556064
525,5.2499999999999325,0.065491624,-0.23220867,-0.015305771,0.11911872,-0.6728681,-3.4150422
526,5.259999999999932,-0.0248795,-0.42953727,0.029148044,0.11911872,-0.6728681,-3.4150422
527,5.269999999999932,-0.2145247,-1.2904412,0.0056710625,0.21548271,-0.7263188,-2.0282254
528,5.279999999999932,-0.2145247,-1.2904412,0.0056710625,0.21548271,-0.7263188,-2.0282254
529,5.289999999999932,-0.05725944,-0.9509091,0.112689495,0.4970916,-0.5821546,-1.5560265
530,5.299999999999931,-0.14805742,-0.7393724,0.15110639,1.2220359,-0.5111415,-1.1859949
531,5.309999999999931,-0.13226382,-0.65180635,0.22226907,2.3660338,-0.3810272,-0.72173727
532,5.319999999999931,-0.18537667,-0.6916867,0.19787739,2.7999008,0.02367103,-0.46502116
533,5.329999999999931,-0.18537667,-0.6916867,0.19787739,2.7999008,0.02367103,-0.46502116
534,5.339999999999931,-0.14641099,-0.5560691,0.016769271,3.094338,0.75396043,0.18845193
535,5.34999999999993,-0.1323248,-0.50161463,-0.060247418,2.9309313,0.79275036,0.6203337
536,5.35999999999993,-0.061101127,-0.3726437,-0.24336785,2.6235135,0.47128254,0.8361218
537,5.36999999999993,-0.012378771,-0.29806617,-0.33056808,2.150704,0.0364992,0.9744828
538,5.37999999999993,-0.012378771,-0.29806617,-0.33056808,2.150704,0.0364992,0.9744828
539,5.3899999999999295,-0.03670946,-0.13092227,-0.2865411,0.8651379,-0.4268421,1.0624474
540,5.399999999999929,-0.0248795,-0.07591906,-0.18769388,0.49373183,-0.3840815,1.029308
541,5.409999999999929,0.0005488125,-0.05213719,-0.11025034,0.17867808,-0.2677117,0.93508196
542,5.419999999999929,0.023659917,-0.024025792,-0.051405437,0.011453724,-0.12614368,0.8564331
543,5.429999999999929,0.06640632,-0.005549104,0.0019513334,-0.1142318,0.0096211275,0.7829765
544,5.4399999999999284,0.074577525,0.005732042,0.010122542,-0.21548271,0.17486018,0.7130325
545,5.449999999999928,0.06286953,0.017866896,0.004024625,-0.2564107,0.25396723,0.69043046
546,5.459999999999928,0.12933682,0.024330689,-0.21757366,-0.29642236,0.19883664,0.6965391
547,5.469999999999928,0.617536,0.19458452,-1.5339309,2.2582161,-7.3354225,1.6600263
548,5.479999999999928,0.8348658,0.47075918,-2.7349155,2.4733934,-6.9817314,2.1222985
549,5.489999999999927,0.7540074,0.61338943,-2.9295,-0.52503866,0.786489,2.7736337
550,5.499999999999927,1.5609447,0.9723738,-2.4263003,-7.44324,1.2617421,5.1833444
551,5.509999999999927,1.5609447,0.9723738,-2.4263003,-7.44324,1.2617421,5.1833444
552,5.519999999999927,4.068835,1.8216306,-1.1070768,-10.191829,-2.2853997,6.8407745
553,5.5299999999999265,4.068835,1.8216306,-1.1070768,-10.191829,-2.2853997,6.8407745
554,5.539999999999926,10.503601,3.4695315,-0.3855103,-9.173211,-0.1085813,0.79717916
555,5.549999999999926,4.7997313,2.6996086,1.6076548,-4.322788,-2.8238773,-2.0409007
556,5.559999999999926,2.5633204,1.7218688,1.0198156,-2.2395847,-2.6210701,-1.8095356
557,5.569999999999926,1.1958015,1.0656719,0.40063316,-2.2395847,-2.6210701,-1.8095356
558,5.5799999999999255,0.7063827,0.7641909,0.18598646,-0.4915938,-0.7334964,-0.732122
559,5.589999999999925,0.46392953,0.58972955,0.065369666,-0.27229318,-0.100792766,-0.49846604
560,5.599999999999925,0.46392953,0.58972955,0.065369666,-0.27229318,-0.100792766,-0.49846604
561,5.609999999999925,0.18836464,0.34166628,0.024025792,-0.06918049,0.9447031,-0.17119499
562,5.619999999999925,0.089822315,0.2321477,0.056222793,-0.07849618,1.0251846,-0.150731
563,5.629999999999924,0.07030898,0.16330221,0.051039565,-0.075289145,1.001819,-0.2350304
564,5.639999999999924,0.049515083,0.14269125,0.048173543,-0.067500606,1.0152581,-0.32925636
565,5.649999999999924,0.016464375,0.13366634,0.04256346,-0.02321288,1.0491611,-0.61300325
566,5.659999999999924,0.016464375,0.13366634,0.04256346,-0.024892759,1.05023,-0.7451029
567,5.6699999999999235,0.0038416875,0.06274756,-0.0160985,-0.10140363,1.0711522,-1.0980303
568,5.679999999999923,0.002134271,0.03640456,-0.026038107,-0.10140363,1.0711522,-1.0980303
569,5.689999999999923,-0.019574312,0.0001829375,-0.026769854,-0.18829921,1.0812315,-1.3432927
570,5.699999999999923,-0.019574312,0.0001829375,-0.026769854,-0.18829921,1.0812315,-1.3432927
571,5.709999999999923,-0.05799119,-0.05408852,-0.004085604,-0.105832405,1.0106765,-1.5027285
572,5.7199999999999225,-0.09781059,-0.112750486,0.016708292,0.441961,-0.31871894,-1.4877623
573,5.729999999999922,-0.09781059,-0.112750486,0.016708292,0.441961,-0.31871894,-1.4877623
574,5.739999999999922,-0.10073759,-0.11665315,0.018659625,0.72265357,-1.0102184,-1.4585935
575,5.749999999999922,-0.05353971,-0.04969802,-0.016281437,1.3274102,-2.561358,-1.4459181
576,5.759999999999922,-0.046710044,-0.043783043,-0.016281437,1.2594514,-2.461787,-1.4785993
577,5.769999999999921,-0.05067369,-0.044270877,-0.008537084,1.1937834,-2.3463335,-1.5125023
578,5.779999999999921,-0.041587792,-0.040795065,0.0022562293,1.133155,-2.2247713,-1.5549575
579,5.789999999999921,-0.015427729,-0.03719729,0.017074168,1.0351112,-1.9996674,-1.6384933
580,5.799999999999921,-0.008171208,-0.037136313,0.023964813,1.0042624,-1.9364429,-1.6867516
581,5.809999999999921,-0.008720021,-0.045856334,0.033843435,0.8773552,-1.6873626,-1.8683313
582,5.81999999999992,-0.008598062,-0.047807667,0.02555027,0.81290895,-1.5523612,-1.9268217
583,5.82999999999992,-0.021891521,-0.052381106,-0.0061588963,0.6937902,-1.2932017,-2.0033326
584,5.83999999999992,-0.046466127,-0.06433302,-0.02774552,0.5354234,-0.914618,-2.0352502
585,5.84999999999992,-0.04701494,-0.06915038,-0.022806209,0.43554693,-0.6601926,-2.0306687
586,5.8599999999999195,-0.03420931,-0.07238227,0.014878917,0.3098614,-0.259465,-2.020895
587,5.869999999999919,-0.040124293,-0.07628494,0.026586918,0.26083946,0.04428773,-1.9931005
588,5.879999999999919,-0.049393125,-0.08122425,0.03091644,0.23915374,0.28955013,-1.951409
589,5.889999999999919,-0.054820273,-0.08024859,0.038172957,0.23075435,0.54473907,-1.8901697
590,5.899999999999919,-0.06219875,-0.083175585,0.042502478,0.23350324,0.6337727,-1.8611537
591,5.909999999999918,-0.0734799,-0.08470006,0.049759,0.2576324,0.9149234,-1.7460055
592,5.919999999999918,-0.08280971,-0.066223375,0.04988096,0.28405234,1.073901,-1.6656768
593,5.929999999999918,-0.066650234,-0.04622221,0.026891813,0.28115073,1.2217305,-1.5757269
594,5.939999999999918,0.008781,0.024330689,-0.0034148335,0.21731532,1.4692836,-1.4451544
595,5.949999999999918,0.02646496,0.29934675,0.31404272,0.37094793,1.3799446,-1.4046847
596,5.959999999999917,0.058357064,0.77126455,0.6019254,9.428705,-3.59708,-0.19532417
597,5.969999999999917,-0.22251299,1.6579627,-0.46149033,7.4160566,-2.8765645,1.1542299
598,5.979999999999917,-0.1419595,4.449894,-8.844113,8.331897,3.3605225,3.530954
599,5.989999999999917,0.22080556,4.0000505,-9.828561,8.331897,3.3605225,3.530954
600,5.9999999999999165,0.280992,1.6196676,-0.5894856,3.5126278,14.014929,5.7151027
601,6.009999999999916,0.280992,1.6196676,-0.5894856,-4.8127017,2.4874432,6.4269133
602,6.019999999999916,0.57436275,0.6422326,0.40447482,-4.614018,9.164811,6.8557405
603,6.029999999999916,0.69882125,0.5438732,0.4927117,-3.3574681,-2.5879307,5.952882
604,6.039999999999916,2.0182276,3.0167615,0.40441385,-2.4378104,-2.4767532,6.9038463
605,6.0499999999999154,6.8580832,2.844922,-0.008902958,-1.3523029,1.9118555,7.5985527
606,6.059999999999915,9.469455,3.3536103,0.25806385,-1.7768543,3.0356948,2.1203132
607,6.069999999999915,3.667897,1.5308211,0.28178474,-1.4717271,2.6429086,-3.6161695
608,6.079999999999915,1.7978488,0.8778561,0.10634767,-1.4717271,2.6429086,-3.6161695
609,6.089999999999915,1.1272609,0.6347321,0.045124583,-0.2874121,4.9554915,-2.4352143
610,6.099999999999914,0.70302886,0.38526636,-0.032562874,-0.2874121,4.9554915,-2.4352143
611,6.109999999999914,0.70302886,0.38526636,-0.032562874,-0.30589077,4.6682324,-1.8481728
612,6.119999999999914,0.42929336,0.022928167,-0.18336436,-0.30589077,4.6682324,-1.8481728
613,6.129999999999914,0.42929336,0.022928167,-0.18336436,-0.1919644,4.712367,-2.1058052
614,6.1399999999999135,0.15592372,-0.28879735,-0.20129223,2.4463625,3.6264014,-3.1477885
615,6.149999999999913,0.10500612,-0.28776067,-0.22812307,3.132975,2.3133466,-3.4180965
616,6.159999999999913,0.054027542,-0.2959319,-0.24611193,3.2632422,1.1018482,-3.5677586
617,6.169999999999913,0.041465834,-0.28611428,-0.2122075,3.0320296,0.4644103,-3.6375499
618,6.179999999999913,0.052625023,-0.3729486,-0.1062867,2.8516717,0.21303925,-3.6682458
619,6.1899999999999125,-0.1214705,-1.2465972,-0.3155672,2.3154848,-0.29749137,-3.2682817
620,6.199999999999912,-0.13360536,-1.3716655,-0.24592897,1.7959439,-0.46944994,-2.6028967
621,6.209999999999912,-0.48929682,-1.3281872,-0.58094853,1.1494957,-0.14156802,-1.8423696
622,6.219999999999912,-0.51344454,-1.0170106,-0.63211006,0.13836098,0.13316862,-0.8565858
623,6.229999999999912,-0.40136486,-0.8012663,-0.42228076,-0.37568212,0.10277808,-0.28221974
624,6.239999999999911,-0.31520134,-0.58942467,-0.045917314,-0.14019357,-0.105068825,0.15195273
625,6.249999999999911,-0.32148215,-0.51411533,0.05110054,0.35140023,-0.013591751,0.38224894
626,6.259999999999911,-0.34008083,-0.5177741,0.16446081,0.82451534,1.2852604,0.93401295
627,6.269999999999911,-0.34008083,-0.5177741,0.16446081,0.82451534,1.2852604,0.93401295
628,6.2799999999999105,-0.2646496,-0.45258737,0.13275166,1.0186177,2.2548563,1.2567025
629,6.28999999999991,-0.08116327,-0.39929157,-0.01762298,1.0902418,2.6925414,1.399645
630,6.29999999999991,0.030611541,-0.3273362,-0.12701961,1.0175488,2.3403776,1.3223705
631,6.30999999999991,0.14263028,-0.22202514,-0.18373023,0.7463246,1.303281,1.0815369
632,6.31999999999991,0.18129106,-0.16653411,-0.12799528,0.5151121,0.6290385,0.88224214
633,6.3299999999999095,0.12933682,-0.06530869,0.08659042,0.15241088,-0.23197608,0.5494733
634,6.339999999999909,0.08860273,-0.043051295,0.10153031,-0.2490803,-0.9405798,0.18402316
635,6.349999999999909,0.037685126,-0.0015244792,0.095615335,-0.48655418,-1.2399037,0.11407909
636,6.359999999999909,0.042929336,0.010732334,0.099457026,-0.6395759,-1.4167492,0.12599096
637,6.369999999999909,0.04463675,0.03518498,0.11378712,-0.7602218,-1.5138768,0.15134187
638,6.379999999999908,0.016647313,0.058905877,0.11756783,-0.7838928,-1.5028812,0.18906279
639,6.389999999999908,0.06628435,0.105920814,0.10189619,-0.65316767,-1.8229746,0.24633141
640,6.399999999999908,0.13116619,0.17781526,0.051466417,0.056963183,-3.754225,0.33337972
641,6.409999999999908,0.15214302,0.20074342,0.03286777,0.6395759,-5.3189564,0.38255435
642,6.419999999999908,0.17025384,0.22050068,-0.08366342,1.215011,-6.7932796,0.4718934
643,6.429999999999907,0.6730271,0.94292086,-2.1741512,2.110692,-9.034544,0.65179324
644,6.439999999999907,1.2801356,1.9121848,-5.4142795,1.9734001,-6.122397,1.0219775
645,6.449999999999907,0.37044844,1.179642,-2.824799,-2.8874073,3.9223657,3.774689
646,6.459999999999907,1.024511,1.197326,-0.7488242,-6.0153427,-0.7991645,6.8977375
647,6.4699999999999065,5.1340194,2.5624666,-0.28196767,-8.010735,-8.570592,6.3898034
648,6.479999999999906,8.984732,1.9664562,-0.07329696,-8.010735,-8.570592,6.3898034
649,6.489999999999906,8.984732,1.9664562,-0.07329696,-8.010735,-8.570592,6.3898034
650,6.499999999999906,3.6300287,2.0592663,0.992253,-8.449335,1.1326969,-0.6078109
651,6.509999999999906,3.6300287,2.0592663,0.992253,-7.594124,1.8529071,-0.1085813
652,6.519999999999905,1.2347062,1.2066557,0.6687586,-6.2285347,1.2476922,-0.11346822
653,6.529999999999905,0.8201698,1.0701234,0.53033584,-4.1512876,0.17562376,-0.11178834
654,6.539999999999905,0.48216227,0.80833983,0.40886533,-0.80680025,-2.6111436,0.33673948
655,6.549999999999905,0.48216227,0.80833983,0.40886533,-0.80680025,-2.6111436,0.33673948
656,6.559999999999905,0.1803154,0.48874804,0.11732392,0.4109596,-2.210874,0.816116
657,6.569999999999904,0.11134796,0.36861908,0.015305771,0.6401868,-1.295187,0.86391616
658,6.579999999999904,0.09817646,0.2900779,0.014208145,0.6401868,-1.295187,0.86391616
659,6.589999999999904,0.09738373,0.22385453,0.03597771,0.79213953,-0.10064005,0.75976366
660,6.599999999999904,0.08104131,0.17696154,0.040734082,0.8970556,0.48517972,0.26374108
661,6.6099999999999035,0.055613004,0.12659276,0.03237994,0.8912524,0.48838675,0.01160644
662,6.619999999999903,0.027013771,0.089700356,-0.009390792,0.8330675,0.48380527,-0.30069843
663,6.629999999999903,0.0066467295,0.064272046,-0.008781,0.74189585,0.41691554,-0.5468771
664,6.639999999999903,-0.016647313,0.052381106,-0.011829958,0.6085745,0.3032946,-0.8542951
665,6.649999999999903,-0.029635875,0.041587792,-0.018598646,0.46303585,0.1957823,-1.1655309
666,6.659999999999902,-0.044270877,0.034636166,-0.016708292,0.3827071,0.14721853,-1.4043792
667,6.669999999999902,-0.08287069,0.042746395,-0.012378771,0.3145956,0.17806722,-1.7290541
668,6.679999999999902,-0.107750185,0.040124293,-0.007683375,0.3051272,0.2096795,-1.8099937
669,6.689999999999902,-0.21239044,0.03603869,-0.022806209,0.2874121,0.35827246,-1.9208658
670,6.699999999999902,-0.2626373,0.021647604,-0.00804925,0.28771752,0.44868052,-1.8808541
671,6.709999999999901,-0.38093686,0.013720313,0.030367626,0.36667186,0.7255552,-1.5096008
672,6.719999999999901,-0.43813533,0.026586918,0.037868064,0.36667186,0.7255552,-1.5096008
673,6.729999999999901,-0.4972851,0.029696856,0.056771606,0.54199016,1.1537718,-0.84711736
674,6.739999999999901,-0.51576185,0.026160065,0.052686002,0.5684101,1.1722504,-0.75900006
675,6.7499999999999005,-0.47203976,-0.021037813,-0.0028050416,0.8042041,1.0041097,-0.02397646
676,6.7599999999999,-0.45063603,-0.049759,-0.027562585,0.95340794,0.5868888,0.34804046
677,6.7699999999999,-0.45063603,-0.049759,-0.027562585,0.95340794,0.5868888,0.34804046
678,6.7799999999999,-0.3523986,-0.07860215,-0.08713923,1.1986703,-0.2762638,0.78984874
679,6.7899999999999,-0.31745756,-0.061284065,-0.08652944,1.2307408,-0.35521814,0.86758137
680,6.7999999999998995,-0.31745756,-0.061284065,-0.08652944,1.2334896,-0.080634214,0.8724683
681,6.809999999999899,-0.20751211,-0.06347931,-0.060552314,1.1922562,0.2753475,0.75823647
682,6.819999999999899,-0.11128698,-0.053051874,-0.03725827,1.116509,0.73471814,0.54428095
683,6.829999999999899,-0.09811548,-0.04908823,-0.03963646,1.0580186,0.9673051,0.38026363
684,6.839999999999899,-0.08793196,-0.050002918,-0.03609967,1.0152581,1.0436633,0.2658791
685,6.849999999999898,-0.07622396,-0.052807957,-0.03305071,0.91919947,1.0122037,-0.013591751
686,6.859999999999898,-0.07097975,-0.040124293,-0.032197,0.8712466,0.9665415,-0.14584407
687,6.869999999999898,0.004451479,-0.105615914,-0.079333894,1.2878567,-0.44012842,0.21365012
688,6.879999999999898,0.4369767,-0.1803154,-0.19885308,3.3658676,-6.401562,2.689487
689,6.8899999999998975,0.4212441,-0.12348281,-0.2215983,6.088952,-13.419335,4.5388813
690,6.899999999999897,0.18318142,0.19531627,-0.1923283,3.8566978,-11.355374,1.0957395
691,6.909999999999897,2.9102917,1.4946604,-10.086564,3.8566978,-11.355374,1.0957395
692,6.919999999999897,2.9489527,2.6369221,-7.816675,-8.761182,-2.037541,-4.261854
693,6.929999999999897,2.473559,4.050907,-3.152379,-8.761182,-2.037541,-4.261854
694,6.9399999999998965,0.09713981,1.5477122,0.7038825,-3.0992248,0.17379116,-3.2088752
695,6.949999999999896,0.09713981,1.5477122,0.7038825,-2.3774874,1.6148223,-0.9579894
696,6.959999999999896,0.15049659,1.7558341,0.6019254,-2.3774874,1.6148223,-0.9579894
697,6.969999999999896,1.1659217,2.8263235,0.5453367,-2.3774874,1.6148223,-0.9579894
698,6.979999999999896,1.2307425,2.7232687,0.95664114,1.6734654,6.9162164,4.0113993
699,6.989999999999895,1.2307425,2.7232687,0.95664114,1.6734654,6.9162164,4.0113993
700,6.999999999999895,2.1768954,1.8864515,0.9593243,4.359134,10.152885,8.448419
701,7.009999999999895,5.2987237,2.0908537,0.5041757,4.0436225,7.6914043,6.135836
702,7.019999999999895,5.8347917,1.9190754,0.32014063,4.111734,6.0385556,1.9188805
703,7.0299999999998946,5.2034745,1.4450233,0.06969919,4.1885505,5.3001723,-1.4101825
704,7.039999999999894,3.3709896,0.7457752,-0.21013421,4.0071235,3.7161987,-5.1567717
705,7.049999999999894,1.9369422,0.4235613,-0.62540233,2.9911017,1.8212948,-5.2937584
706,7.059999999999894,1.3614209,0.23659918,-0.8223651,1.6905695,1.6966782,-4.781395
707,7.069999999999894,1.1805567,-0.05860098,-0.89072275,0.3707952,1.5486962,-4.32065
708,7.0799999999998935,1.0501832,-0.2697718,-0.8416954,-0.72586066,2.010663,-4.236503
709,7.089999999999893,0.58168024,-0.53966564,-0.5233842,-2.228131,3.5188892,-4.674188
710,7.099999999999893,0.37361938,-0.77248406,-0.23848954,-2.228131,3.5188892,-4.674188
711,7.109999999999893,0.37361938,-0.77248406,-0.23848954,-2.2736404,4.097073,-4.7600145
712,7.119999999999893,-0.436062,-1.952614,-0.120007,-1.5280794,4.521319,-4.1943536
713,7.129999999999892,-0.4533801,-1.8060809,0.014939896,-0.45982882,3.5298848,-1.6658295
714,7.139999999999892,-0.5066149,-1.7291863,-0.07085779,-0.13332134,3.0757065,-0.77366084
715,7.149999999999892,-0.5066149,-1.7291863,-0.07085779,0.31031954,1.9701931,0.8191703
716,7.159999999999892,-0.43575716,-1.0856122,0.021891521,0.75609845,1.065349,1.8238909
717,7.169999999999892,-0.43575716,-1.0856122,0.021891521,0.75609845,1.065349,1.8238909
718,7.179999999999891,-0.2748331,-0.59747386,0.118360564,1.8567249,-0.30298916,2.8739684
719,7.189999999999891,-0.23952618,-0.53490925,0.10622571,2.2030854,-0.7276932,3.057686
720,7.199999999999891,-0.112140685,-0.3497765,-0.017562,2.6569583,-1.5642731,3.2045991
721,7.209999999999891,-0.11823861,-0.34928867,0.007683375,2.786309,-1.8393153,3.2297974
722,7.2199999999998905,0.03524596,-0.2388554,-0.05933273,2.8490756,-2.1320724,3.1592424
723,7.22999999999989,0.1331785,-0.14031307,-0.059576645,2.8076894,-2.529593,2.787531
724,7.23999999999989,0.22354963,-0.07658983,-0.119397216,2.7765353,-2.6508498,2.6288586
725,7.24999999999989,0.23922127,-0.042502478,-0.14939895,2.3448062,-3.2824843,1.6633861
726,7.25999999999989,0.23922127,-0.042502478,-0.14939895,2.3448062,-3.2824843,1.6633861
727,7.269999999999889,0.27507702,-0.022440333,-0.18873052,1.6389514,-3.6651914,0.96196
728,7.279999999999889,0.3354464,0.010549396,-0.20074342,1.3672692,-3.6867244,0.7328856
729,7.289999999999889,0.31806734,0.04414892,-0.18671821,0.84620106,-3.4466543,0.29428434
730,7.299999999999889,0.25660032,0.071040735,-0.19934091,0.4792238,-3.036764,0.09330966
731,7.309999999999889,0.19452354,0.09354204,-0.19440159,0.009315695,-2.2427917,0.023518313
732,7.319999999999888,0.1425693,0.1074453,-0.17464434,-0.4448626,-1.3886495,0.10522154
733,7.329999999999888,0.16037522,0.12122658,-0.15854584,-0.61437774,-1.055117,0.16142114
734,7.339999999999888,0.26001516,0.14092286,-0.14122775,-1.176221,0.030390546,0.3454443
735,7.349999999999888,0.3895959,0.15000875,-0.14098383,-1.4532484,0.32284227,0.40133846
736,7.3599999999998875,0.83998805,0.40538952,-1.5844827,-2.202322,1.6754507,0.41905355
737,7.369999999999887,2.4868524,1.1412861,-5.430683,-4.3962445,0.5777258,0.39629883
738,7.379999999999887,1.9560287,0.7897412,-3.1335366,-5.074152,-2.3435845,0.5374087
739,7.389999999999887,1.9040135,0.5725944,-0.2947733,-6.632775,-6.0252695,1.8555032
740,7.399999999999887,3.202321,0.9248711,-0.3825833,-7.2712817,-6.3691864,2.3446536
741,7.4099999999998865,5.1979866,1.9154166,-0.3474593,-7.2712817,-6.3691864,2.3446536
742,7.419999999999886,5.1979866,1.9154166,-0.3474593,-8.834639,1.4932601,1.9488128
743,7.429999999999886,4.630514,2.6678386,1.4406939,-6.480364,1.2773192,0.3912592
744,7.439999999999886,4.630514,2.6678386,1.4406939,-6.480364,1.2773192,0.3912592
745,7.449999999999886,4.630514,2.6678386,1.4406939,-6.480364,1.2773192,0.3912592
746,7.459999999999885,1.6330831,1.9595655,0.20202398,0.20631973,-1.3469579,0.75136423
747,7.469999999999885,1.2008018,1.7033311,-0.29330978,0.7498371,-0.33948836,1.1739303
748,7.479999999999885,1.2008018,1.7033311,-0.29330978,0.88056225,2.195755,1.478752
749,7.489999999999885,0.8031566,0.99152124,-0.37282664,0.7696902,3.3327281,1.5528195
750,7.4999999999998845,0.7341892,0.7007726,-0.31831124,0.5815437,3.9321396,1.5088371
751,7.509999999999884,0.63503706,0.48880902,-0.2713573,0.45662177,3.9164097,1.3332134
752,7.519999999999884,0.5291162,0.3264215,-0.26019812,0.42363504,3.6767979,1.2177598
753,7.529999999999884,0.3389832,0.12726352,-0.28349215,0.4008803,2.827848,0.96791595
754,7.539999999999884,0.30660325,0.09976192,-0.29178533,0.39446622,2.450486,0.88621277
755,7.5499999999998835,0.16866837,0.018171793,-0.09970094,0.38637227,1.3222178,0.61666846
756,7.559999999999883,0.11775078,0.012256813,-0.024574606,0.364992,0.67103547,0.31948254
757,7.569999999999883,0.069577225,0.0017074167,-0.021037813,0.3199407,0.4251622,0.1563815
758,7.579999999999883,0.006768687,-0.020123126,-0.02042802,0.19639318,0.094531395,-0.063224554
759,7.589999999999883,-0.014695979,-0.03237994,-0.005366167,0.13148874,-0.015882496,-0.1330159
760,7.599999999999882,-0.033355605,-0.035367917,0.0061588963,0.08903361,-0.04795292,-0.15393804
761,7.609999999999882,-0.038538832,-0.026708877,-0.017379062,0.076816306,-0.051618114,-0.1441642
762,7.619999999999882,-0.038538832,-0.026708877,-0.017379062,0.05467244,-0.065209866,-0.13209961
763,7.629999999999882,-0.03079448,-0.020793896,-0.012500729,-0.024587326,-0.09621128,-0.1348485
764,7.6399999999998816,-0.029391957,-0.020306062,-0.0061588963,-0.08445212,-0.11362094,-0.15592335
765,7.649999999999881,-0.029696856,-0.021647604,0.020671938,-0.13118331,-0.20311269,-0.19746219
766,7.659999999999881,-0.029696856,-0.021647604,0.020671938,-0.13118331,-0.20311269,-0.19746219
767,7.669999999999881,-0.03439225,-0.02792846,0.056771606,-0.1554652,-0.34987307,-0.26435193
768,7.679999999999881,-0.026586918,-0.035124,0.05933273,-0.18509217,-0.9289733,-0.5129741
769,7.6899999999998805,-0.025733208,-0.0395145,0.075980045,-0.22357668,-1.2029464,-0.70157874
770,7.69999999999988,-0.020793896,-0.046283185,0.075126335,-0.22357668,-1.2029464,-0.70157874
771,7.70999999999988,-0.01536675,-0.054027542,0.07433361,-0.21700987,-1.4294246,-1.0896308
772,7.71999999999988,-0.00060979166,-0.052076213,0.05640573,-0.1957823,-1.440573,-1.3513867
773,7.72999999999988,-0.0005488125,-0.052076213,0.049576063,-0.18875736,-1.4262177,-1.5213599
774,7.739999999999879,-0.015183813,-0.055552024,0.052381106,-0.18142697,-1.3778065,-1.8078557
775,7.749999999999879,-0.015183813,-0.055552024,0.052381106,-0.17837265,-1.3315336,-1.9486601
776,7.759999999999879,-0.03518498,-0.050368793,0.053600688,-0.17959438,-1.2658654,-2.0505219
777,7.769999999999879,-0.05286894,-0.047990605,0.06799178,-0.1601994,-1.1693488,-2.1229095
778,7.779999999999879,-0.077077664,-0.05433244,0.10488417,-0.13713925,-1.1400273,-2.1302397
779,7.789999999999878,-0.0717115,-0.050917607,0.1009815,0.032986723,-1.0435106,-2.0378466
780,7.799999999999878,-0.0717115,-0.050917607,0.1009815,0.032986723,-1.0435106,-2.0378466
781,7.809999999999878,-0.084456146,-0.054210484,0.16135088,0.23441954,-1.0152581,-1.9572122
782,7.819999999999878,-0.09799352,-0.06079623,0.24849011,0.7492262,-1.1522446,-1.8359555
783,7.8299999999998775,0.0042075627,-0.046039272,0.40624323,1.3048081,-1.6074919,-1.7559321
784,7.839999999999877,0.055552024,-0.048051585,0.43801335,1.3048081,-1.6074919,-1.7559321
785,7.849999999999877,0.2183664,-0.06695513,0.4520386,1.616044,-1.9120082,-1.807703
786,7.859999999999877,0.30995712,-0.052746978,0.44740415,2.2075143,-2.2956316,-2.0899227
787,7.869999999999877,0.36233822,-0.0024391667,0.39179114,2.6471846,-2.3060162,-2.701246
788,7.879999999999876,0.36233822,-0.0024391667,0.39179114,2.6471846,-2.3060162,-2.701246
789,7.889999999999876,-0.41898784,0.8081569,1.4411817,12.159273,3.7148242,0.89644474
790,7.899999999999876,0.46740535,0.07335794,-0.7683985,12.159273,3.7148242,0.89644474
791,7.909999999999876,0.75931257,0.7517512,-2.2137878,12.34803,13.985607,5.19098
792,7.919999999999876,0.75931257,0.7517512,-2.2137878,12.34803,13.985607,5.19098
793,7.929999999999875,0.75931257,0.7517512,-2.2137878,12.34803,13.985607,5.19098
794,7.939999999999875,9.653612,6.317625,-3.6974719,2.3660338,11.075293,3.0810516
795,7.949999999999875,5.6572204,5.2544527,-2.5158784,-5.4528885,-1.1404854,-5.152496
796,7.959999999999875,4.018649,2.4340444,-0.7866922,-6.337269,0.46654832,-3.5155294
797,7.9699999999998745,3.3417194,1.4764886,-0.072138354,-4.957935,0.9092729,-3.0450106
798,7.979999999999874,2.0526197,0.904443,0.006768687,-2.628095,0.040011674,-3.1662674
799,7.989999999999874,1.0311577,0.24745347,-0.45886827,-1.9237673,-0.070249505,-3.204141
800,7.999999999999874,0.7043094,0.04170975,-0.6057671,-2.4474316,0.37094793,-3.0746374
801,8.009999999999874,0.5493003,-0.08470006,-0.6740027,-2.937193,0.4277584,-2.980106
802,8.019999999999873,0.5493003,-0.08470006,-0.6740027,-3.4196236,0.4905248,-3.091131
803,8.029999999999873,0.3822174,-0.22763525,-0.54869056,-3.4196236,0.4905248,-3.091131
804,8.039999999999873,0.22568391,-0.30312744,-0.24964872,-3.226743,0.8191703,-3.6001344
805,8.049999999999873,0.18488884,-0.29745638,-0.07226031,-2.7925704,1.174083,-3.956116
806,8.059999999999873,0.18488884,-0.29745638,-0.07226031,-2.7925704,1.174083,-3.956116
807,8.069999999999872,0.18665724,-0.4455748,-0.06262561,-1.5314392,2.1163425,-4.4425173
808,8.079999999999872,0.36489934,-0.69217455,-0.09677394,-1.3031282,1.9955441,-4.578893
809,8.089999999999872,0.34434935,-0.5514956,-0.12110463,-1.2568552,1.6684257,-4.742452
810,8.099999999999872,0.134642,-0.41349974,0.0022562293,-1.2180653,1.1960741,-4.89074
811,8.109999999999872,0.0831146,-0.42941532,0.00048783334,-1.1530081,1.0170907,-4.89074
812,8.119999999999871,0.014574022,-0.6199752,-0.0071345624,-1.1010846,0.6806566,-4.7288604
813,8.129999999999871,-0.012805625,-0.7000409,0.00042685418,-1.0789407,0.57726765,-4.6108108
814,8.139999999999871,-0.038355898,-0.7644348,0.015061854,-0.96929044,0.3640757,-4.0231586
815,8.14999999999987,0.061467,-0.3017249,0.038172957,-0.9236283,0.14752395,-3.8030944
816,8.15999999999987,0.05189327,-0.3222749,0.037807085,-0.7632761,-0.22724187,-3.7013853
817,8.16999999999987,0.034148335,-0.3565452,0.026403978,-0.7632761,-0.22724187,-3.7013853
818,8.17999999999987,0.011281146,-0.33477563,0.012256813,-0.73731434,-0.31123585,-3.6421313
819,8.18999999999987,-0.020549979,-0.36593598,0.0922005,-0.5919284,-0.40775254,-3.4524577
820,8.19999999999987,-0.04116094,-0.3791075,0.11701902,-0.5919284,-0.40775254,-3.4524577
821,8.20999999999987,-0.16738781,-0.42856157,0.14317909,-0.1788308,-0.3736968,-2.9068022
822,8.21999999999987,-0.24495333,-0.5160667,0.20293866,0.40194935,-0.05971208,-1.8976529
823,8.229999999999869,-0.26647896,-0.52917725,0.26769856,0.8016079,0.45173484,-1.1632402
824,8.239999999999869,-0.26153967,-0.5610693,0.32904357,0.8016079,0.45173484,-1.1632402
825,8.249999999999869,-0.22287886,-0.5529591,0.35611832,1.4737124,1.7875444,0.29138273
826,8.259999999999868,-0.1408009,-0.5153959,0.3662409,1.7427986,2.2586741,0.79519385
827,8.269999999999868,-0.08915155,-0.4589292,0.38654694,2.0001256,2.561358,1.2066116
828,8.279999999999868,0.047319833,-0.3436786,0.36502132,2.3032675,2.6955955,1.5554156
829,8.289999999999868,0.14836231,-0.21678093,0.37081432,2.6108382,2.4694228,1.6401732
830,8.299999999999867,0.14836231,-0.21678093,0.37081432,2.9321532,1.9891299,1.5806139
831,8.309999999999867,0.17988855,-0.1027499,0.319043,3.1025846,1.4995215,1.5445728
832,8.319999999999867,0.13622746,-0.0395145,0.21110988,3.185204,0.9605856,1.5460999
833,8.329999999999867,0.06884548,-0.01103723,0.107750185,3.22827,0.39095375,1.6331482
834,8.339999999999867,0.05232013,-0.006890646,0.051039565,3.2192597,0.07849618,1.6966782
835,8.349999999999866,0.05232013,-0.006890646,0.051039565,3.2394185,-0.4008803,1.7905988
836,8.359999999999866,-0.0023781876,0.24519724,0.2086707,3.6699257,-0.7405214,2.158034
837,8.369999999999866,-0.8127913,2.253546,1.4067894,10.46122,4.4293838,5.6025505
838,8.379999999999866,-0.76943517,1.3517252,-1.1166505,10.571634,2.576935,8.609382
839,8.389999999999866,2.330075,7.342197,-9.82222,5.8656807,5.760154,15.001476
840,8.399999999999865,11.102295,7.8726544,-1.1168334,5.8656807,5.760154,15.001476
841,8.409999999999865,11.102295,7.8726544,-1.1168334,5.8656807,5.760154,15.001476
842,8.419999999999865,1.8573645,3.9327905,-0.6946747,-2.1730003,-1.9469802,5.144249
843,8.429999999999865,1.0904295,2.3309898,0.044880666,-8.5092,-9.482767,-1.1748465
844,8.439999999999864,0.8720631,1.6302171,0.31587207,-8.539591,-8.648478,-0.6206391
845,8.449999999999864,0.6810763,1.1116502,0.5225915,-7.9893537,-7.6497126,-0.2996294
846,8.459999999999864,0.6810763,1.1116502,0.5225915,-7.9893537,-7.6497126,-0.2996294
847,8.469999999999864,0.5378972,0.8404149,0.570765,-7.252345,-6.802748,-0.2837469
848,8.479999999999864,0.13830076,0.42691517,0.661563,-4.090659,-3.8993056,-0.75900006
849,8.489999999999863,0.040612124,0.28971204,0.6149749,-2.769663,-2.8793132,-0.9077458
850,8.499999999999863,-0.039270584,0.1823277,0.57503355,-1.7502817,-2.2163718,-0.9799806
851,8.509999999999863,-0.07628494,0.10622571,0.47033232,-0.9634872,-1.7670804,-0.99387777
852,8.519999999999863,-0.11695804,-0.0022562293,0.31044495,-0.14248432,-1.3347405,-0.96852684
853,8.529999999999863,-0.11708001,-0.037563168,0.24659975,0.16355917,-1.1704178,-0.93660915
854,8.539999999999862,-0.11915329,-0.076102,0.22897679,0.743423,-0.9494373,-0.89843005
855,8.549999999999862,-0.10409144,-0.098054506,0.20117027,1.2308935,-0.9414961,-0.8856019
856,8.559999999999862,-0.118055664,-0.093664,0.080614455,1.9213239,-1.0835222,-0.8524625
857,8.569999999999862,-0.118055664,-0.093664,0.080614455,1.9213239,-1.0835222,-0.8524625
858,8.579999999999862,-0.12964171,-0.10006681,0.07274815,1.9506454,-1.0807734,-0.8339838
859,8.589999999999861,-0.14866722,-0.11092111,0.07805333,1.8947513,-1.2777774,-0.8542951
860,8.599999999999861,-0.1741565,-0.11634825,0.097871564,1.8947513,-1.2777774,-0.8542951
861,8.60999999999986,-0.17366867,-0.11586042,0.095920235,1.8154916,-1.5477798,-0.768163
862,8.61999999999986,-0.16732684,-0.11336028,0.0983594,1.7751744,-1.6041322,-0.7118107
863,8.62999999999986,-0.14019111,-0.10781116,0.10634767,1.7559321,-1.5309811,-0.6731735
864,8.63999999999986,-0.10183521,-0.09750569,0.06811373,1.6710218,-1.3118331,-0.6953174
865,8.64999999999986,-0.10183521,-0.09750569,0.06811373,1.6710218,-1.3118331,-0.6953174
866,8.65999999999986,-0.07451654,-0.084212236,0.057503358,1.3243558,-0.5647449,-0.8242099
867,8.66999999999986,-0.07451654,-0.084212236,0.057503358,1.3243558,-0.5647449,-0.8242099
868,8.67999999999986,-0.08713923,-0.086712375,0.05793021,0.86254174,0.32925636,-0.95554596
869,8.68999999999986,-0.13512984,-0.10396948,0.08494398,0.66538495,0.7087564,-1.0219775
870,8.699999999999859,-0.17775428,-0.13299556,0.076102,0.38683042,1.2903001,-1.0958922
871,8.709999999999859,-0.2040363,-0.15555786,0.08829784,0.1498147,1.8868101,-1.1267409
872,8.719999999999859,-0.21428078,-0.16732684,0.09317617,-0.017715093,2.3373232,-1.1430815
873,8.729999999999858,-0.24720955,-0.15622863,0.1156165,-0.23625213,3.1245756,-1.0595458
874,8.739999999999858,-0.21525647,-0.117506854,0.11598238,-0.27214047,3.3954945,-0.9324858
875,8.749999999999858,-0.20495099,-0.11897036,0.108298995,-0.25213462,3.4031303,-0.8002335
876,8.759999999999858,-0.20495099,-0.11897036,0.108298995,-0.22510384,3.2937853,-0.6565274
877,8.769999999999857,-0.20232888,-0.12366576,0.14445965,-0.17272215,3.0575333,-0.5120578
878,8.779999999999857,-0.13769096,-0.10104248,0.098054506,-0.09666943,2.2319489,-0.301462
879,8.789999999999857,-0.052198168,-0.05921077,0.055978876,-0.18616119,1.6357445,-0.3313944
880,8.799999999999857,-0.023781875,-0.031221334,0.071040735,-0.29856038,1.0147998,-0.4176791
881,8.809999999999857,-0.023781875,-0.031221334,0.071040735,-0.38759398,0.54428095,-0.47739118
882,8.819999999999856,0.34142238,1.4796594,1.1847032,-0.013133603,-0.8622363,-0.66630125
883,8.829999999999856,-0.026038107,1.4105701,1.4640489,14.161384,-13.097409,-1.6606371
884,8.839999999999856,-0.4056944,0.037075333,-1.279099,14.312878,-12.929115,-3.0500503
885,8.849999999999856,-1.402094,3.9943795,-3.8995569,14.084109,-5.663179,-2.368172
886,8.859999999999856,-2.353613,6.445376,-16.076181,6.075971,-7.221191,-0.06582073
887,8.869999999999855,-0.3272142,1.8865125,-1.4526457,6.075971,-7.221191,-0.06582073
888,8.879999999999855,-0.3272142,1.8865125,-1.4526457,6.075971,-7.221191,-0.06582073
889,8.889999999999855,-0.3272142,1.8865125,-1.4526457,6.075971,-7.221191,-0.06582073
890,8.899999999999855,-0.9332252,1.7119291,0.3986208,-6.913009,5.511379,-0.3089451
891,8.909999999999854,-2.0104833,3.4187362,0.36636284,-6.218761,7.8984876,-0.2434298
892,8.919999999999854,-2.209763,4.106276,0.69266236,-5.120425,9.231701,1.0351112
893,8.929999999999854,-2.1273193,4.377329,0.5717407,-4.8185053,8.844871,1.4153748
894,8.939999999999854,-1.7930924,4.668077,0.6100356,-3.7297904,5.551085,2.8586967
895,8.949999999999854,-1.2724524,3.6846051,0.3987428,-3.3770158,2.812118,3.7210855
896,8.959999999999853,-0.6281464,2.222142,0.24678269,-3.0682235,0.88270026,4.3218718
897,8.969999999999853,0.09957898,0.71376115,-0.22976951,-3.1016684,-0.33001995,4.7303877
898,8.979999999999853,0.09957898,0.71376115,-0.22976951,-3.1016684,-0.33001995,4.7303877
899,8.989999999999853,0.32422623,-0.015122834,-0.1323248,-3.2519412,-0.0786489,4.5265117
900,8.999999999999853,0.32422623,-0.015122834,-0.1323248,-1.8852829,3.2682817,3.7861428
901,9.009999999999852,0.21629311,-0.05786923,-0.035428897,-1.0016663,4.7235155,3.4848335
902,9.019999999999852,0.28147984,-0.061162103,-0.120494835,-0.6986771,5.1034737,3.335935
903,9.029999999999852,0.49039447,-0.102445,-0.02774552,-0.36911532,5.297729,2.8771753
904,9.039999999999852,0.88645416,-0.09409086,-0.008293167,-0.23075435,5.412113,2.1203132
905,9.049999999999851,0.88645416,-0.09409086,-0.008293167,-0.23075435,5.412113,2.1203132
906,9.059999999999851,1.0941492,-0.19190145,0.090554066,0.07360926,4.749325,-0.64843345
907,9.069999999999851,1.0279258,-0.2652594,0.13073933,0.21991149,4.668385,-1.4802792
908,9.07999999999985,0.96225125,-0.66991717,0.2110489,0.6702719,4.084398,-2.9222267
909,9.08999999999985,0.922188,-0.6594287,0.06579652,0.8688031,2.9969049,-3.604105
910,9.09999999999985,0.6315613,-0.5069808,-0.011586042,0.9755518,1.8982637,-4.088216
911,9.10999999999985,0.3170307,-0.30977416,-0.06738198,0.8746063,0.49220467,-4.446488
912,9.11999999999985,0.15549688,-0.42923236,-0.07335794,0.7840455,-0.11866058,-4.498259
913,9.12999999999985,0.22854991,-0.49673632,-0.128788,0.44684792,-1.3788756,-4.2664356
914,9.13999999999985,0.18549863,-0.35813063,0.0020732917,0.27916542,-1.9120082,-4.2137485
915,9.14999999999985,0.16086306,-0.24275808,0.0082321875,0.18661933,-2.1798725,-4.1645737
916,9.15999999999985,0.13305654,-0.20629252,0.039148625,0.033292156,-2.2989914,-3.990019
917,9.169999999999849,0.17555903,-0.21903718,0.08945644,-0.07009678,-2.3380868,-3.6515996
918,9.179999999999849,0.19360885,-0.2031826,0.12842213,-0.13240504,-2.349846,-3.036611
919,9.189999999999849,0.2022679,-0.199036,0.1820838,-0.11407909,-2.3243423,-2.435978
920,9.199999999999848,0.2022679,-0.199036,0.1820838,-0.11407909,-2.3243423,-2.435978
921,9.209999999999848,0.21117085,-0.19592606,0.2215983,-0.076052725,-2.2643247,-1.6884315
922,9.219999999999848,0.36727753,-0.17622979,0.4431966,0.2706133,-1.3046554,0.18020524
923,9.229999999999848,0.55320305,-0.1422644,0.49679726,0.6646214,-0.32834008,0.8686504
924,9.239999999999847,0.55320305,-0.1422644,0.49679726,0.6646214,-0.32834008,0.8686504
925,9.249999999999847,0.6679658,0.029452939,0.47484478,1.4016303,0.93615097,0.9575313
926,9.259999999999847,0.58289987,0.074577525,0.4237442,1.6398678,1.0621419,0.89980453
927,9.269999999999847,0.38801044,0.12701961,0.28032124,1.6398678,1.0621419,0.89980453
928,9.279999999999847,0.29215118,0.14567922,0.20604862,2.24157,0.5016731,0.75655663
929,9.289999999999846,0.25916147,0.2122075,0.1975725,2.397188,0.052534413,0.9233228
930,9.299999999999846,0.31739658,0.29648072,0.22293983,2.5893052,-0.39477167,1.3228287
931,9.309999999999846,0.42758593,0.41758534,0.24739249,2.71102,-0.67179906,1.6158913
932,9.319999999999846,0.5149081,0.6405862,0.30257863,2.9756773,-1.0315987,2.2686007
933,9.329999999999846,2.5012434,4.2972016,0.5772288,10.83507,10.467176,7.700109
934,9.339999999999845,5.4694657,5.415438,-2.851142,8.739496,9.672441,8.25905
935,9.349999999999845,5.977727,7.9432073,-7.280913,0.10338894,21.506275,4.3133197
936,9.359999999999845,5.977727,7.9432073,-7.280913,0.10338894,21.506275,4.3133197
937,9.369999999999845,0.7428482,4.5776453,-3.7838793,-0.7797695,21.017887,3.0705142
938,9.379999999999844,0.8238895,1.4735616,0.20476803,-7.7101884,-8.536384,-1.0085385
939,9.389999999999844,0.69808954,1.0394509,0.61918247,-7.311599,-8.762556,-1.2131784
940,9.399999999999844,0.5418609,0.8238895,0.7265058,-7.311599,-8.762556,-1.2131784
941,9.409999999999844,0.36819223,0.60899895,0.7702888,-6.6737027,-8.580519,-1.3750577
942,9.419999999999844,0.27215004,0.4399647,0.81242543,-4.5167375,-7.0684743,-1.6526959
943,9.429999999999843,0.10433535,0.28141886,0.63765913,-2.8417451,-5.37256,-1.8655825
944,9.439999999999843,0.034148335,0.20440216,0.48240623,-1.7528778,-4.1318927,-1.9886718
945,9.449999999999843,0.034148335,0.20440216,0.48240623,-1.7528778,-4.1318927,-1.9886718
946,9.459999999999843,-0.05780825,0.02042802,0.2771503,-1.0202976,-2.9823968,-2.041359
947,9.469999999999843,-0.07604102,-0.025184397,0.22537899,-0.82909685,-2.5465446,-2.0028744
948,9.479999999999842,-0.07994369,-0.04981998,0.14476454,-0.6461427,-2.0265455,-1.9144517
949,9.489999999999842,-0.06591848,-0.050368793,0.10689648,-0.5719226,-1.8258762,-1.8707749
950,9.499999999999842,-0.06591848,-0.050368793,0.10689648,-0.5109888,-1.6679676,-1.8234328
951,9.509999999999842,-0.0775655,-0.06500379,0.110860124,-0.5109888,-1.6679676,-1.8234328
952,9.519999999999841,-0.06628435,-0.07713865,0.10768921,-0.38789943,-1.3691018,-1.7026341
953,9.529999999999841,-0.05744238,-0.07226031,0.097017854,-0.2649628,-1.1534663,-1.6233743
954,9.539999999999841,-0.06640632,-0.079029,0.122324206,-0.14431691,-0.9718866,-1.553583
955,9.54999999999984,-0.093907915,-0.09713981,0.15494807,0.1704314,-0.626595,-1.3732251
956,9.55999999999984,-0.093907915,-0.09713981,0.15494807,0.1704314,-0.626595,-1.3732251
957,9.56999999999984,-0.092505395,-0.09713981,0.17000991,0.3304781,-0.4802928,-1.2822062
958,9.57999999999984,-0.10677453,-0.10299382,0.17537609,0.7150178,-0.16615535,-1.0560333
959,9.58999999999984,-0.10677453,-0.10299382,0.17537609,0.7150178,-0.16615535,-1.0560333
960,9.59999999999984,-0.08366342,-0.080065645,0.14116678,1.0832168,-0.100029185,-0.82512623
961,9.60999999999984,-0.1253122,-0.098420374,0.12397064,1.0832168,-0.100029185,-0.82512623
962,9.61999999999984,-0.1253122,-0.098420374,0.12397064,1.1989758,-0.107665,-0.7228063
963,9.62999999999984,-0.15500905,-0.09000525,0.06945527,1.3944527,-0.053297993,-0.28023443
964,9.639999999999839,-0.122324206,-0.085431814,0.061467,1.399645,-0.023823744,-0.1788308
965,9.649999999999839,-0.10122541,-0.075126335,0.042014647,1.3518448,0.045662176,-0.03863723
966,9.659999999999838,-0.09031015,-0.069760166,0.020123126,1.2907583,0.116217114,0.03283401
967,9.669999999999838,-0.1557408,-0.0962861,-0.052807957,1.0726794,0.31887165,0.20433442
968,9.679999999999838,-0.14738666,-0.0942738,-0.059088815,1.0726794,0.31887165,0.20433442
969,9.689999999999838,-0.14738666,-0.0942738,-0.059088815,0.77396625,0.6249151,0.4005749
970,9.699999999999838,-0.15116736,-0.10018878,-0.0658575,0.5543602,0.8436049,0.5720753
971,9.709999999999837,-0.16336319,-0.14482552,0.006707709,0.43157628,0.97112304,0.6759224
972,9.719999999999837,-0.16336319,-0.14482552,0.006707709,0.3155119,1.2904528,0.8378017
973,9.729999999999837,-0.13281263,-0.1504356,0.17568098,0.41172317,1.7427986,0.9662361
974,9.739999999999837,-0.061162103,-0.13702019,0.27123535,0.6450737,2.1325307,0.9831876
975,9.749999999999837,0.030672522,-0.058722936,0.34819105,1.0067059,2.483778,0.89720833
976,9.759999999999836,0.08506594,-0.02426971,0.35221568,1.2484559,2.5047002,0.7959574
977,9.769999999999836,0.07524829,0.0013415418,0.44100136,1.7968601,2.1036673,0.5526803
978,9.779999999999836,-0.046039272,1.5386873,1.4895381,4.854241,1.1389582,0.3827071
979,9.789999999999836,-0.046039272,1.5386873,1.4895381,4.854241,1.1389582,0.3827071
980,9.799999999999836,-0.10195717,0.54149497,0.24251415,13.644134,2.7504208,1.0615311
981,9.809999999999835,0.045124583,6.1395655,-16.048376,13.087482,1.9500346,1.162782
982,9.819999999999835,-0.20556077,4.3222036,-16.028557,-3.1242702,-8.644354,-0.38713586
983,9.829999999999835,-0.096895896,1.185496,0.2789797,-9.290955,-7.650018,0.023823744
984,9.839999999999835,-0.096895896,1.185496,0.2789797,-9.290955,-7.650018,0.023823744
985,9.849999999999834,-1.7018676,4.653686,1.4034966,-9.290955,-7.650018,0.023823744
986,9.859999999999834,-0.91505337,2.9490745,1.0283527,-9.569204,-3.3696854,2.5819747
987,9.869999999999834,-0.03609967,5.774422,5.2167068,-1.4330899,0.8005389,7.6014543
988,9.879999999999834,1.0782946,4.8611374,3.1256092,2.4759896,3.0847168,7.7046905
989,9.889999999999834,1.2900143,3.1249995,0.7324818,3.1920764,5.648213,6.5353417
990,9.899999999999833,1.0860391,2.0323138,0.22196417,3.1920764,5.648213,6.5353417
991,9.909999999999833,1.0860391,2.0323138,0.22196417,3.1920764,5.648213,6.5353417
992,9.919999999999833,0.8199259,1.2306815,0.0074394583,2.382527,7.137808,5.405852
993,9.929999999999833,0.6902842,0.8983451,-0.0395145,1.4014776,7.9366665,4.3553166
994,9.939999999999833,0.5919248,0.5491174,-0.5332628,-0.10216721,7.5715218,3.249956
995,9.949999999999832,1.3438588,0.39666948,-0.7236398,-0.9616546,6.9963923,2.6768115
996,9.959999999999832,1.1045157,-0.25477096,-0.22873287,-2.6461155,5.4269266,-1.2873985
997,9.969999999999832,1.0834168,-0.46399048,0.2063535,1.2939653,10.67991,-3.4324517
998,9.979999999999832,0.93974996,-0.3459348,0.07628494,1.2939653,10.67991,-3.4324517
999,9.989999999999831,1.0337799,-0.37355837,-0.055978876,1.820073,10.068434,-3.9782598
1000,9.999999999999831,1.0806727,-1.4793546,-0.13891055,1.9955441,8.868694,-4.554611
