id,timestamp,acc_x,acc_y,acc_z,gyro_x,gyro_y,gyro_z
0,0,-0.26678386,-0.42856157,-0.7646788,-0.28848112,-0.34025195,0.054367006
1,0.01,-0.26824737,-0.42612243,-0.7651666,-0.29352075,-0.34147367,0.059253927
2,0.02,-0.28080907,-0.42429304,-0.7789479,-0.3089451,-0.24755314,0.071013086
3,0.03,-0.29861498,-0.4230125,-0.80010766,-0.3089451,-0.24755314,0.071013086
4,0.04,-0.32636052,-0.43161055,-0.85047644,-0.31108314,-0.13041973,0.06307184
5,0.05,-0.34020278,-0.44594067,-0.87041664,-0.32452217,-0.1207986,0.054367006
6,0.060000000000000005,-0.34020278,-0.44594067,-0.87041664,-0.32452217,-0.1207986,0.054367006
7,0.07,-0.35843554,-0.48258913,-0.87700236,-0.33429602,-0.123242065,0.051923547
8,0.08,-0.36807024,-0.4982608,-0.8798074,-0.36483926,-0.13439035,0.033444874
9,0.09,-0.37258273,-0.50021213,-0.8681604,-0.34254268,-0.15012014,0.031154128
10,0.09999999999999999,-0.3594112,-0.48307696,-0.8755389,-0.30573806,-0.14630222,0.021685716
11,0.10999999999999999,-0.3594112,-0.48307696,-0.8755389,-0.2359467,-0.12996158,-0.0012217305
12,0.11999999999999998,-0.3492277,-0.468442,-0.8834052,-0.20311269,-0.10170906,-0.012217305
13,0.12999999999999998,-0.3305071,-0.43307403,-0.82712144,-0.1910481,-0.06505715,-0.012217305
14,0.13999999999999999,-0.3305071,-0.43307403,-0.82712144,-0.16584991,-0.011148291,-0.008552114
15,0.15,-0.3234335,-0.42221975,-0.80962044,-0.14767668,0.024281893,-0.0062613687
16,0.16,-0.3079448,-0.41087765,-0.80230296,-0.10186178,0.12095132,-0.018478673
17,0.17,-0.3079448,-0.41087765,-0.80230296,-0.10186178,0.12095132,-0.018478673
18,0.18000000000000002,-0.30831066,-0.3905106,-0.82937765,-0.05681047,0.18112154,-0.03436117
19,0.19000000000000003,-0.30831066,-0.3905106,-0.82937765,-0.05681047,0.18112154,-0.03436117
20,0.20000000000000004,-0.31343293,-0.40032822,-0.84200037,-0.011301007,0.16661349,-0.049938235
21,0.21000000000000005,-0.31343293,-0.40032822,-0.84200037,-0.011301007,0.16661349,-0.049938235
22,0.22000000000000006,-0.31343293,-0.40032822,-0.84200037,-0.026725354,0.10308351,-0.06566802
23,0.23000000000000007,-0.31739658,-0.4344156,-0.8182185,-0.08674286,0.11499538,-0.06612616
24,0.24000000000000007,-0.32526287,-0.43831828,-0.80894965,-0.101556346,0.118507855,-0.058948494
25,0.25000000000000006,-0.33288527,-0.4431356,-0.7768136,-0.13240504,0.12568553,-0.021227567
26,0.26000000000000006,-0.33678794,-0.4431356,-0.7734598,-0.13240504,0.12568553,-0.021227567
27,0.2700000000000001,-0.33642206,-0.44167212,-0.7641909,-0.11713341,0.15882497,0.04718934
28,0.2800000000000001,-0.33099493,-0.43923298,-0.7744354,-0.07819075,0.16035213,0.08536842
29,0.2900000000000001,-0.32154313,-0.4358181,-0.79242426,-0.03313944,0.1704314,0.10522154
30,0.3000000000000001,-0.2939196,-0.44301364,-0.8212674,-0.0062613687,0.18524489,0.10903945
31,0.3100000000000001,-0.2939196,-0.44301364,-0.8212674,-0.0025961774,0.18035796,0.10903945
32,0.3200000000000001,-0.25361237,-0.45508754,-0.8499886,-0.013133603,0.1339322,0.09941832
33,0.3300000000000001,-0.22598879,-0.46521008,-0.8734656,-0.032986723,0.027641652,0.06429356
34,0.34000000000000014,-0.21842737,-0.46575886,-0.901638,-0.0664316,-0.056963183,0.027641652
35,0.35000000000000014,-0.2968466,-0.36782634,-0.91432166,-0.26450464,-0.05207626,-0.032375857
36,0.36000000000000015,-0.2968466,-0.36782634,-0.91432166,-0.26450464,-0.05207626,-0.032375857
37,0.37000000000000016,-0.32800692,-0.34941062,-0.88175875,-0.27229318,0.0027488936,-0.03863723
38,0.38000000000000017,-0.36246017,-0.34752026,-0.8509033,-0.22953261,0.004276057,-0.026267206
39,0.3900000000000002,-0.36605796,-0.3846566,-0.8568183,-0.13652839,-0.0036651916,0.012370021
40,0.4000000000000002,-0.34233707,-0.39868182,-0.8822466,-0.0936151,-0.03023783,0.037110064
41,0.4100000000000002,-0.3269093,-0.41185328,-0.90578455,-0.0936151,-0.03023783,0.037110064
42,0.4200000000000002,-0.3272752,-0.4177073,-0.91548026,-0.08475755,-0.07040222,0.036193766
43,0.4300000000000002,-0.33550736,-0.42020744,-0.91749257,-0.10186178,-0.06078109,0.028710667
44,0.4400000000000002,-0.34544697,-0.40563342,-0.9060894,-0.1337795,-0.062155537,0.022296581
45,0.45000000000000023,-0.34526405,-0.39679146,-0.8827954,-0.14095716,-0.065973446,0.01740966
46,0.46000000000000024,-0.34508112,-0.38453463,-0.8585867,-0.1226312,-0.06093381,0.012675454
47,0.47000000000000025,-0.34416643,-0.37477797,-0.8582208,-0.09468412,-0.035124753,0.0041233404
48,0.48000000000000026,-0.34556895,-0.3655701,-0.8709654,-0.06291912,-0.0032070426,-0.0030543262
49,0.49000000000000027,-0.34337372,-0.36172843,-0.8938936,-0.037415497,0.03848451,-0.019089539
50,0.5000000000000002,-0.3500814,-0.37246075,-0.8991988,-0.022907447,0.06658431,-0.037415497
51,0.5100000000000002,-0.35880142,-0.3895959,-0.8976134,0.0016798794,0.061850104,-0.045814894
52,0.5200000000000002,-0.36313096,-0.40520656,-0.8931009,0.033750303,0.046120327,-0.04917465
53,0.5300000000000002,-0.36172843,-0.41782925,-0.8807221,0.0777326,0.047647487,-0.034208454
54,0.5400000000000003,-0.32629952,-0.44185504,-0.85279363,0.11682798,0.04550946,-0.026572637
55,0.5500000000000003,-0.32629952,-0.44185504,-0.85279363,0.11682798,0.04550946,-0.026572637
56,0.5600000000000003,-0.31989673,-0.44526988,-0.85315955,0.12782355,0.04917465,-0.025350908
57,0.5700000000000003,-0.25275865,-0.44917256,-0.83931726,0.12782355,0.04917465,-0.025350908
58,0.5800000000000003,-0.26403978,-0.4253907,-0.8455371,0.1994475,0.15454891,-0.05955936
59,0.5900000000000003,-0.2713573,-0.41423148,-0.8496837,0.19074267,0.17165314,-0.054825157
60,0.6000000000000003,-0.27977243,-0.3875226,-0.8539522,0.19074267,0.17165314,-0.054825157
61,0.6100000000000003,-0.27532095,-0.3860591,-0.8602941,0.1684461,0.18982637,-0.030543262
62,0.6200000000000003,-0.27532095,-0.3860591,-0.8602941,0.1684461,0.18982637,-0.030543262
63,0.6300000000000003,-0.24806325,-0.42593947,-0.8858444,0.18677205,0.18997909,-0.029321533
64,0.6400000000000003,-0.24245316,-0.442038,-0.898772,0.18432859,0.19120082,-0.02687807
65,0.6500000000000004,-0.24245316,-0.442038,-0.898772,0.18432859,0.19120082,-0.02687807
66,0.6600000000000004,-0.21434177,-0.49155307,-0.9046869,0.09743301,0.18203785,-0.020005837
67,0.6700000000000004,-0.18665724,-0.5175912,-0.87675846,0.0070249503,0.14370605,-0.013133603
68,0.6800000000000004,-0.18665724,-0.5175912,-0.87675846,-0.0842994,0.0711658,-0.0071776668
69,0.6900000000000004,-0.26391783,-0.47795472,-0.82736534,-0.0842994,0.0711658,-0.0071776668
70,0.7000000000000004,-0.19147459,-0.5149081,-0.7891314,-0.13240504,0.1207986,-0.016340645
71,0.7100000000000004,-0.28611428,-0.43032995,-0.83157295,-0.1479821,0.068264194,-0.008857546
72,0.7200000000000004,-0.27050358,-0.40136486,-0.79669285,-0.16722436,0.012064588,0.0035124752
73,0.7300000000000004,-0.25861263,-0.38709575,-0.7782161,-0.14645495,-0.16600263,0.030085113
74,0.7400000000000004,-0.2503805,-0.38703477,-0.772789,-0.09941832,-0.23044892,0.03436117
75,0.7500000000000004,-0.26861322,-0.39843786,-0.7927902,-0.052687127,-0.26068676,0.04444045
76,0.7600000000000005,-0.26861322,-0.39843786,-0.7927902,-0.02076942,-0.28725937,0.0693332
77,0.7700000000000005,-0.30111513,-0.42758593,-0.84395164,0.0036651916,-0.29917124,0.09758572
78,0.7800000000000005,-0.30873755,-0.4291104,-0.8566963,0.02321288,-0.30634892,0.112399206
79,0.7900000000000005,-0.32129923,-0.42045137,-0.8749291,0.07345655,-0.31948254,0.13240504
80,0.8000000000000005,-0.33300725,-0.4059383,-0.8859663,0.11728613,-0.29718593,0.13744467
81,0.8100000000000005,-0.34081256,-0.38069293,-0.8980402,0.14523321,-0.25793785,0.13622294
82,0.8200000000000005,-0.33831242,-0.3646554,-0.91578513,0.16203201,-0.2078469,0.12140947
83,0.8300000000000005,-0.33831242,-0.3646554,-0.91578513,0.16203201,-0.2078469,0.12140947
84,0.8400000000000005,-0.339593,-0.36422858,-0.9352985,0.15088372,-0.15439619,0.07467828
85,0.8500000000000005,-0.34319076,-0.37508285,-0.9590804,0.12660182,-0.15332718,0.036651913
86,0.8600000000000005,-0.3503863,-0.37904653,-0.968837,0.08628472,-0.15974127,0.015577064
87,0.8700000000000006,-0.35849655,-0.3927668,-0.9774961,0.04352415,-0.1563815,-0.004276057
88,0.8800000000000006,-0.36813122,-0.41380462,-0.9749349,0.0030543262,-0.14569137,-0.015577064
89,0.8900000000000006,-0.38099784,-0.43862313,-0.93914014,-0.042455133,-0.11178834,-0.00992656
90,0.9000000000000006,-0.38319308,-0.44533083,-0.9093824,-0.049021937,-0.06658431,-0.00030543262
91,0.9100000000000006,-0.38953492,-0.4520386,-0.8571841,-0.021380283,-0.00290161,0.009315695
92,0.9200000000000006,-0.39032766,-0.45533144,-0.822548,0.05024367,0.07192938,0.026725354
93,0.9300000000000006,-0.38807142,-0.45283127,-0.80943745,0.12950343,0.10797043,0.028252518
94,0.9400000000000006,-0.37532678,-0.43136662,-0.8251701,0.22159137,0.086437434,0.027641652
95,0.9500000000000006,-0.37227783,-0.42801276,-0.84175646,0.2782491,0.038026363,0.0355829
96,0.9600000000000006,-0.36874104,-0.4299641,-0.8562694,0.3036,-0.08384126,0.058184914
97,0.9700000000000006,-0.36819223,-0.42947626,-0.86309916,0.3036,-0.08384126,0.058184914
98,0.9800000000000006,-0.36819223,-0.42947626,-0.86309916,0.3100141,-0.13988814,0.06337727
99,0.9900000000000007,-0.32501897,-0.39801103,-0.8601721,0.37568212,-0.23105977,0.0580322
100,1.0000000000000007,-0.32501897,-0.39801103,-0.8601721,0.36957347,-0.1872302,0.016340645
101,1.0100000000000007,-0.26153967,-0.36636284,-0.83846354,0.31520647,-0.10216721,-0.01985312
102,1.0200000000000007,-0.24659975,-0.3749609,-0.81382793,0.23869559,-0.0025961774,-0.069791354
103,1.0300000000000007,-0.26721072,-0.39063254,-0.7904729,0.13942999,0.06001751,-0.14523321
104,1.0400000000000007,-0.2828214,-0.3960597,-0.7871191,0.121256754,0.045356743,-0.16249016
105,1.0500000000000007,-0.33873928,-0.42179292,-0.7898022,0.10995574,-0.051159963,-0.1742493
106,1.0600000000000007,-0.35758185,-0.43264723,-0.80010766,0.098807454,-0.06841691,-0.15470162
107,1.0700000000000007,-0.36233822,-0.44051352,-0.80736417,0.06429356,-0.045356743,-0.13057245
108,1.0800000000000007,-0.35880142,-0.44972134,-0.81212056,0.007330383,0.00076358154,-0.10048734
109,1.0900000000000007,-0.35197178,-0.45941702,-0.8070593,-0.010995574,0.0018325958,-0.09330966
110,1.1000000000000008,-0.3348976,-0.4899676,-0.7889485,-0.028099801,-0.017715093,-0.08353582
111,1.1100000000000008,-0.3319706,-0.5060051,-0.78138703,-0.010842858,-0.028710667,-0.08093964
112,1.1200000000000008,-0.32910457,-0.5069808,-0.7750452,0.022143865,-0.033292156,-0.0795652
113,1.1300000000000008,-0.33215353,-0.49813882,-0.76882535,0.08078693,-0.02076942,-0.069485925
114,1.1400000000000008,-0.330751,-0.4922848,-0.766935,0.10277808,-0.008399397,-0.062002823
115,1.1500000000000008,-0.31331098,-0.48338187,-0.76004434,0.16707164,0.051923547,-0.03863723
116,1.1600000000000008,-0.30306646,-0.48283303,-0.7570564,0.18402316,0.077579886,-0.027641652
117,1.1700000000000008,-0.2911755,-0.49356538,-0.77333784,0.18402316,0.077579886,-0.027641652
118,1.1800000000000008,-0.2911755,-0.49356538,-0.77333784,0.20234911,0.07284568,-0.01038471
119,1.1900000000000008,-0.27465016,-0.47722298,-0.87962455,0.13133603,0.022449298,0.02855795
120,1.2000000000000008,-0.26019812,-0.465393,-0.86742866,0.07345655,0.064751714,0.02443461
121,1.2100000000000009,-0.26019812,-0.465393,-0.86742866,0.07345655,0.064751714,0.02443461
122,1.2200000000000009,-0.237087,-0.48057684,-0.7773624,0.034208454,0.118202426,-0.015271631
123,1.2300000000000009,-0.25220984,-0.48551616,-0.77498424,0.056352317,0.11713341,-0.031001411
124,1.2400000000000009,-0.29904184,-0.50588316,-0.8102912,0.07345655,0.10995574,-0.01985312
125,1.2500000000000009,-0.30379823,-0.50740767,-0.8215723,0.05971208,0.11835514,-0.00045814895
126,1.260000000000001,-0.30379823,-0.50740767,-0.8215723,0.05971208,0.11835514,-0.00045814895
127,1.270000000000001,-0.29434645,-0.49576062,-0.8440126,0.004581489,0.09254608,0.050701816
128,1.280000000000001,-0.2739794,-0.48929682,-0.8385246,-0.016035212,0.053297993,0.056963183
129,1.290000000000001,-0.26147866,-0.4862479,-0.8238286,-0.03772093,0.020158553,0.053297993
130,1.300000000000001,-0.26166162,-0.48423555,-0.8024249,-0.048716504,0.016493361,0.040927973
131,1.310000000000001,-0.2681864,-0.49197996,-0.7833994,-0.07941248,0.04184427,0.034513887
132,1.320000000000001,-0.2941635,-0.47795472,-0.7730939,-0.09437868,0.054061573,0.04046982
133,1.330000000000001,-0.30392018,-0.4610025,-0.7841311,-0.0917825,0.03940081,0.04795292
134,1.340000000000001,-0.319043,-0.4158779,-0.8130962,-0.087964594,0.024740042,0.051618114
135,1.350000000000001,-0.31526232,-0.386303,-0.8650505,-0.09040806,0.01863139,0.051618114
136,1.360000000000001,-0.31526232,-0.386303,-0.8650505,-0.13087788,0.030543262,0.042760566
137,1.370000000000001,-0.28123593,-0.43032995,-0.8315119,-0.13958271,0.05131268,0.023060163
138,1.380000000000001,-0.28123593,-0.43032995,-0.8315119,-0.13958271,0.05131268,0.023060163
139,1.390000000000001,-0.29282197,-0.48685768,-0.8060836,-0.13958271,0.08170322,-0.00030543262
140,1.400000000000001,-0.30898145,-0.5221036,-0.83017033,-0.107665,0.096516706,-0.028252518
141,1.410000000000001,-0.31142062,-0.53057975,-0.8734656,-0.103847094,0.07696902,-0.032986723
142,1.420000000000001,-0.3009322,-0.5222866,-0.9022478,-0.11453723,0.037873644,-0.037873644
143,1.430000000000001,-0.30379823,-0.49124816,-0.93042016,-0.14110987,0.0035124752,-0.047647487
144,1.440000000000001,-0.30337137,-0.46149033,-0.93956697,-0.1742493,0.0033597588,-0.057726767
145,1.450000000000001,-0.29306588,-0.43508637,-0.91444355,-0.22067507,0.00061086525,-0.07269296
146,1.460000000000001,-0.2815408,-0.44026962,-0.8893812,-0.22800545,-0.004428773,-0.07269296
147,1.470000000000001,-0.27684543,-0.45770964,-0.86675787,-0.22556199,-0.0032070426,-0.07147124
148,1.480000000000001,-0.27263784,-0.4765522,-0.83480483,-0.22434026,0.0030543262,-0.06780604
149,1.490000000000001,-0.27776012,-0.4896627,-0.8029737,-0.22815818,0.0041233404,-0.059253927
150,1.500000000000001,-0.28666306,-0.5008829,-0.78199685,-0.22327125,-0.015271631,-0.02733622
151,1.5100000000000011,-0.2977003,-0.49222386,-0.80559576,-0.20861048,-0.02733622,0.0009162979
152,1.5200000000000011,-0.2994687,-0.47624728,-0.83065826,-0.20861048,-0.043218717,0.013286319
153,1.5300000000000011,-0.30227375,-0.4490506,-0.8602941,-0.23289238,-0.06047566,0.0009162979
154,1.5400000000000011,-0.30867654,-0.42770788,-0.8684043,-0.22922719,-0.045814894,-0.013744468
155,1.5500000000000012,-0.31544524,-0.39209604,-0.8455371,-0.22922719,-0.045814894,-0.013744468
156,1.5600000000000012,-0.32026258,-0.3715461,-0.8116937,-0.20479257,-0.013897184,-0.027183503
157,1.5700000000000012,-0.33495858,-0.35928926,-0.7642519,-0.15485434,0.021838432,-0.028252518
158,1.5800000000000012,-0.32739717,-0.3729486,-0.7810212,-0.01786781,0.010537425,0.010537425
159,1.5900000000000012,-0.32739717,-0.3729486,-0.7810212,-0.01786781,0.010537425,0.010537425
160,1.6000000000000012,-0.31300604,-0.40343818,-0.8862712,0.028252518,0.030390546,0.054825157
161,1.6100000000000012,-0.30782285,-0.40587732,-0.91395575,0.015882496,0.05222898,0.062002823
162,1.6200000000000012,-0.3141037,-0.40112096,-0.9228587,0.017104227,0.05222898,0.05589417
163,1.6300000000000012,-0.3164819,-0.4074628,-0.9301152,0.03940081,0.025503624,0.04886922
164,1.6400000000000012,-0.30111513,-0.41813415,-0.9463967,0.03940081,0.025503624,0.04886922
165,1.6500000000000012,-0.30111513,-0.41813415,-0.9463967,0.0954477,-0.08155051,0.023823744
166,1.6600000000000013,-0.30111513,-0.41813415,-0.9463967,0.0954477,-0.08155051,0.023823744
167,1.6700000000000013,-0.23842856,-0.43959883,-0.91383386,-0.061850104,-0.13515393,-0.03680463
168,1.6800000000000013,-0.2532465,-0.43813533,-0.8949912,-0.08857546,-0.14630222,-0.04917465
169,1.6900000000000013,-0.30276155,-0.43594006,-0.8687092,-0.12614368,-0.16493362,-0.088422745
170,1.7000000000000013,-0.33703187,-0.42587852,-0.8618796,-0.1001819,-0.17944166,-0.1151481
171,1.7100000000000013,-0.37611952,-0.3852054,-0.8710264,-0.1001819,-0.17944166,-0.1151481
172,1.7200000000000013,-0.37477797,-0.35209373,-0.87877077,0.025045475,-0.20677789,-0.13133603
173,1.7300000000000013,-0.36160645,-0.34178823,-0.887064,0.044745877,-0.21029036,-0.13500121
174,1.7400000000000013,-0.34081256,-0.33483663,-0.8742583,0.03726278,-0.19440787,-0.13133603
175,1.7500000000000013,-0.31312802,-0.39282778,-0.784558,0.041691553,-0.14920384,-0.12660182
176,1.7600000000000013,-0.32093337,-0.4278908,-0.75888574,0.10888673,-0.14996742,-0.08827003
177,1.7700000000000014,-0.32233587,-0.4410623,-0.75772715,0.13698652,-0.15943582,-0.056199603
178,1.7800000000000014,-0.3167258,-0.44356245,-0.781509,0.17806722,-0.13958271,0.00870483
179,1.7900000000000014,-0.30916438,-0.45331916,-0.8003516,0.20570888,-0.08323039,0.028252518
180,1.8000000000000014,-0.30916438,-0.45331916,-0.8003516,0.20570888,-0.08323039,0.028252518
181,1.8100000000000014,-0.28587034,-0.48167443,-0.8743193,0.17944166,0.008093964,0.010537425
182,1.8200000000000014,-0.28587034,-0.48167443,-0.8743193,0.17944166,0.008093964,0.010537425
183,1.8300000000000014,-0.28263843,-0.5133836,-0.8865761,0.1253801,0.04795292,-0.0290161
184,1.8400000000000014,-0.30892047,-0.53722644,-0.82706046,-0.11346822,-0.030543262,-0.11957687
185,1.8500000000000014,-0.34599578,-0.53289694,-0.7743745,-0.1731803,-0.065209866,-0.14676037
186,1.8600000000000014,-0.40063316,-0.52039623,-0.73028654,-0.16829337,-0.04932737,-0.15897769
187,1.8700000000000014,-0.43935493,-0.4996633,-0.7221153,-0.10888673,0.009773844,-0.12095132
188,1.8800000000000014,-0.45075798,-0.4612464,-0.7212616,-0.012064588,0.106901415,-0.044898596
189,1.8900000000000015,-0.37483895,-0.5252746,-0.76943517,0.055741455,0.1684461,-0.0067195175
190,1.9000000000000015,-0.37483895,-0.5252746,-0.76943517,0.2275473,0.23182335,0.0711658
191,1.9100000000000015,-0.3259946,-0.5781435,-0.7975465,0.2275473,0.23182335,0.0711658
192,1.9200000000000015,-0.28172377,-0.60235226,-0.8240725,0.23900102,0.16233744,0.07513642
193,1.9300000000000015,-0.26745462,-0.5111884,-0.8445615,0.099265605,0.052839845,0.03680463
194,1.9400000000000015,-0.26745462,-0.5111884,-0.8445615,0.099265605,0.052839845,0.03680463
195,1.9500000000000015,-0.29349273,-0.35075217,-0.77315485,0.018478673,0.043676864,0.040011674
196,1.9600000000000015,-0.29349273,-0.35075217,-0.77315485,-0.00992656,0.056963183,0.059406646
197,1.9700000000000015,-0.26568624,-0.2490999,-0.73662835,-0.040317107,0.15210545,0.09666943
198,1.9800000000000015,-0.280992,-0.23159887,-0.7262619,-0.033444874,0.20708331,0.105068825
199,1.9900000000000015,-0.280992,-0.23159887,-0.7262619,-0.033444874,0.20708331,0.105068825
200,2.0000000000000013,-0.31483543,-0.25574663,-0.743397,0.025503624,0.19165897,0.11652254
201,2.010000000000001,-0.32684833,-0.35526463,-0.8972475,0.14813483,0.11438452,0.1947133
202,2.020000000000001,-0.2800773,-0.42051232,-0.95395815,0.12736541,0.082619525,0.22892176
203,2.0300000000000007,-0.24855109,-0.4554534,-0.96737355,0.08811731,0.07620544,0.2275473
204,2.0400000000000005,-0.21434177,-0.51411533,-0.93999386,-0.001985312,0.069485925,0.15974127
205,2.0500000000000003,-0.23178181,-0.5413121,-0.88669807,-0.037110064,0.056963183,0.09101892
206,2.06,-0.28026026,-0.5468612,-0.8559036,-0.03176499,0.031306844,0.054367006
207,2.07,-0.32233587,-0.5320433,-0.8535864,-0.016798794,0.011759156,0.042455133
208,2.0799999999999996,-0.34288585,-0.5189937,-0.85248876,-0.011911872,0.01786781,0.042455133
209,2.0899999999999994,-0.33819047,-0.4399037,-0.8315119,-0.02565634,0.044745877,0.045814894
210,2.099999999999999,-0.33819047,-0.4399037,-0.8315119,-0.02565634,0.044745877,0.045814894
211,2.109999999999999,-0.2833702,-0.46399048,-0.8379757,-0.005955936,0.020463986,0.046120327
212,2.1199999999999988,-0.2833702,-0.46399048,-0.8379757,-0.0010690142,0.03634648,0.039858956
213,2.1299999999999986,-0.2833702,-0.46399048,-0.8379757,-0.0010690142,0.03634648,0.039858956
214,2.1399999999999983,-0.2833702,-0.46399048,-0.8379757,-0.0010690142,0.03634648,0.039858956
215,2.149999999999998,-0.2561735,-0.54667825,-0.8323047,-0.11102476,0.03313944,-0.0035124752
216,2.159999999999998,-0.26343,-0.52222556,-0.8029127,-0.09407325,0.032070424,0.02107485
217,2.1699999999999977,-0.26147866,-0.4803939,-0.8258409,-0.11026118,0.051465396,0.03924809
218,2.1799999999999975,-0.26147866,-0.4803939,-0.8258409,-0.11026118,0.051465396,0.03924809
219,2.1899999999999973,-0.26294217,-0.4235003,-0.857733,-0.12492194,0.052534413,0.04520403
220,2.199999999999997,-0.2587346,-0.4042919,-0.95347023,-0.16310102,-0.06001751,0.017256944
221,2.209999999999997,-0.25275865,-0.44124526,-0.94517714,-0.2321288,-0.12996158,-0.019547688
222,2.2199999999999966,-0.25623447,-0.47575948,-0.91895604,-0.26725355,-0.18646662,-0.036651913
223,2.2299999999999964,-0.28038222,-0.55167854,-0.84175646,-0.31535918,-0.28802297,-0.043982297
224,2.239999999999996,-0.30574957,-0.5799119,-0.7753501,-0.32650748,-0.2941316,-0.021991149
225,2.249999999999996,-0.32386038,-0.5846682,-0.7130904,-0.30955598,-0.2770274,-0.0035124752
226,2.259999999999996,-0.34587383,-0.5578984,-0.6712587,-0.24404067,-0.22159137,0.023518313
227,2.2699999999999956,-0.36538717,-0.51131034,-0.7007726,-0.16355917,-0.18570304,0.049632803
228,2.2799999999999954,-0.37422916,-0.4288055,-0.7920584,-0.096516706,-0.1693624,0.082924955
229,2.289999999999995,-0.36172843,-0.37532678,-0.8573671,-0.09040806,-0.18020524,0.09896017
230,2.299999999999995,-0.27660152,-0.25092927,-0.96481246,-0.26740626,-0.24113905,0.07360926
231,2.3099999999999947,-0.27660152,-0.25092927,-0.96481246,-0.26740626,-0.24113905,0.07360926
232,2.3199999999999945,-0.26995477,-0.234221,-0.95176286,-0.3911065,-0.19318613,0.0065668016
233,2.3299999999999943,-0.30629835,-0.25141713,-0.91340697,-0.3911065,-0.19318613,0.0065668016
234,2.339999999999994,-0.37672928,-0.33526346,-0.79029,-0.30085114,-0.17547104,0.04505131
235,2.349999999999994,-0.39288875,-0.37715617,-0.75973946,-0.19715676,-0.13332134,0.07360926
236,2.3599999999999937,-0.39288875,-0.37715617,-0.75973946,-0.19715676,-0.13332134,0.07360926
237,2.3699999999999934,-0.40959707,-0.3890471,-0.7904729,-0.087659165,-0.074067414,0.10705414
238,2.3799999999999932,-0.41514617,-0.3406906,-0.898772,0.016340645,0.08536842,0.14752395
239,2.389999999999993,-0.3999014,-0.31733558,-0.92621255,0.039858956,0.19547687,0.15088372
240,2.399999999999993,-0.38179058,-0.3196528,-0.930908,0.049480084,0.24312437,0.14462234
241,2.4099999999999926,-0.3650823,-0.34782517,-0.92792004,0.054061573,0.30283645,0.11988231
242,2.4199999999999924,-0.36392367,-0.38483953,-0.9231027,0.06627888,0.313832,0.08933904
243,2.429999999999992,-0.36221626,-0.4306349,-0.9215172,0.09865474,0.27259862,0.06765333
244,2.439999999999992,-0.34971553,-0.47008842,-0.93163973,0.16966783,0.122783914,0.051618114
245,2.4499999999999917,-0.32916555,-0.47045428,-0.9352985,0.19853121,0.03390302,0.05589417
246,2.4599999999999915,-0.3108718,-0.4469163,-0.92663944,0.18784106,-0.008857546,0.051159963
247,2.4699999999999913,-0.3155672,-0.41618282,-0.91340697,0.15851954,-0.012675454,0.034972034
248,2.479999999999991,-0.33855635,-0.37770495,-0.883954,0.119729586,-0.027641652,0.0018325958
249,2.489999999999991,-0.3559354,-0.35727695,-0.8614527,0.11713341,-0.009468411,-0.0056505036
250,2.4999999999999907,-0.37557068,-0.35392308,-0.84706163,0.11713341,-0.009468411,-0.0056505036
251,2.5099999999999905,-0.38740066,-0.3637407,-0.83145094,0.122783914,0.04428773,-0.0021380284
252,2.5199999999999902,-0.39032766,-0.3773391,-0.8240115,0.20448714,0.0936151,0.005497787
253,2.52999999999999,-0.38538834,-0.38368094,-0.8253531,0.3052799,0.046731193,0.00015271631
254,2.53999999999999,-0.34148335,-0.41374367,-0.8586477,0.3744604,-0.012675454,-0.010079277
255,2.5499999999999896,-0.30989614,-0.4345985,-0.8853565,0.40546182,-0.06490443,-0.015882496
256,2.5599999999999894,-0.28434587,-0.44130626,-0.90352833,0.40546182,-0.06490443,-0.015882496
257,2.569999999999989,-0.27001578,-0.4578316,-0.9124923,0.35460728,-0.13118331,-0.034208454
258,2.579999999999989,-0.26830834,-0.4786255,-0.8761487,0.2359467,-0.12721269,-0.06795876
259,2.5899999999999888,-0.27861384,-0.4750887,-0.8241334,0.16615535,-0.10445796,-0.10399981
260,2.5999999999999885,-0.30739596,-0.46490517,-0.7777893,0.16615535,-0.10445796,-0.10399981
261,2.6099999999999883,-0.34971553,-0.44264776,-0.7502267,0.16615535,-0.10445796,-0.10399981
262,2.619999999999988,-0.3530084,-0.42081723,-0.78016746,0.16615535,-0.10445796,-0.10399981
263,2.629999999999988,-0.32581168,-0.42368326,-0.8086447,0.19624045,-0.01038471,-0.12140947
264,2.6399999999999877,-0.30757892,-0.43240327,-0.82931674,0.16203201,-0.019089539,-0.115453534
265,2.6499999999999875,-0.30757892,-0.43240327,-0.82931674,0.09468412,-0.034208454,-0.11209377
266,2.6599999999999873,-0.30398116,-0.4718568,-0.82346267,0.04062254,-0.030848695,-0.096516706
267,2.669999999999987,-0.30806676,-0.47521064,-0.8000467,0.017104227,-0.012675454,-0.082161374
268,2.679999999999987,-0.31922594,-0.4496604,-0.72107863,0.035124753,0.035124753,-0.060170226
269,2.6899999999999866,-0.31922594,-0.4496604,-0.72107863,0.07895433,0.052534413,-0.05757405
270,2.6999999999999864,-0.3358123,-0.42691517,-0.7327257,0.17272215,0.10934488,-0.038789943
271,2.709999999999986,-0.3488618,-0.4080726,-0.7593736,0.17272215,0.10934488,-0.038789943
272,2.719999999999986,-0.34520307,-0.39551088,-0.79169255,0.16752979,0.13973543,-0.026725354
273,2.7299999999999858,-0.32001868,-0.41295093,-0.81266934,0.08002335,0.17104226,0.030085113
274,2.7399999999999856,-0.2935537,-0.45905116,-0.80157113,0.03970624,0.13790283,0.055741455
275,2.7499999999999853,-0.27702835,-0.48960173,-0.77815515,0.02397646,0.110872045,0.059406646
276,2.759999999999985,-0.27330863,-0.50210243,-0.74919003,0.040011674,0.106137834,0.05085453
277,2.769999999999985,-0.29934675,-0.49252874,-0.7383357,0.100029185,0.10399981,0.042760566
278,2.7799999999999847,-0.29934675,-0.49252874,-0.7383357,0.100029185,0.10399981,0.042760566
279,2.7899999999999845,-0.32379937,-0.43051293,-0.8134621,0.18035796,0.14126259,0.08093964
280,2.7999999999999843,-0.30392018,-0.4115484,-0.86218446,0.17134771,0.19242255,0.10277808
281,2.809999999999984,-0.2639788,-0.4158779,-0.9099921,0.14065172,0.19960022,0.100029185
282,2.819999999999984,-0.24172144,-0.45423386,-0.91712666,0.08964448,0.15286903,0.08277224
283,2.8299999999999836,-0.24111164,-0.49948034,-0.9029186,0.05467244,0.096516706,0.06078109
284,2.8399999999999834,-0.26202747,-0.538568,-0.88310033,0.007330383,0.062002823,0.033750303
285,2.849999999999983,-0.2827604,-0.5420438,-0.8574891,-0.03313944,0.07513642,0.024892759
286,2.859999999999983,-0.2953831,-0.5234452,-0.82565796,-0.05299256,0.118966006,0.023365596
287,2.869999999999983,-0.30983517,-0.48307696,-0.81218153,-0.035124753,0.15943582,0.03924809
288,2.8799999999999826,-0.3167258,-0.45441675,-0.82669455,-0.026419923,0.13500121,0.04795292
289,2.8899999999999824,-0.31135964,-0.46472222,-0.86797744,-0.026419923,0.13500121,0.04795292
290,2.899999999999982,-0.31135964,-0.46472222,-0.86797744,-0.01985312,0.08628472,0.05421429
291,2.909999999999982,-0.29849303,-0.47496673,-0.8852346,-0.01985312,0.08628472,0.05421429
292,2.9199999999999817,-0.2883705,-0.46703944,-0.8749901,-0.06856962,0.065209866,0.03573562
293,2.9299999999999815,-0.29532212,-0.43624496,-0.83212173,-0.11056661,0.11484267,0.020616703
294,2.9399999999999813,-0.31038398,-0.4358791,-0.8356585,-0.099571034,0.116217114,0.026725354
295,2.949999999999981,-0.31038398,-0.4358791,-0.8356585,-0.099571034,0.116217114,0.026725354
296,2.959999999999981,-0.30483487,-0.4276469,-0.8620015,-0.07391469,0.10048734,0.051465396
297,2.9699999999999807,-0.29690757,-0.43203738,-0.8711484,-0.0627664,0.079870634,0.054061573
298,2.9799999999999804,-0.26306412,-0.44551378,-0.8862102,-0.057421334,0.022602014,0.054367006
299,2.9899999999999802,-0.24147749,-0.46051466,-0.89072275,-0.07422013,-0.014202617,0.03604105
300,2.99999999999998,-0.23409903,-0.47746688,-0.8865151,-0.1142318,-0.03283401,0.011301007
301,3.00999999999998,-0.24013597,-0.48667476,-0.8626113,-0.17760907,-0.056505036,-0.017104227
302,3.0199999999999796,-0.25635642,-0.4877114,-0.84614694,-0.21166481,-0.07498371,-0.03924809
303,3.0299999999999794,-0.30928633,-0.47338125,-0.825414,-0.21135938,-0.1067487,-0.05497787
304,3.039999999999979,-0.3445933,-0.4443552,-0.82565796,-0.160963,-0.13576481,-0.04718934
305,3.049999999999979,-0.3196528,-0.39557186,-0.8620625,-0.10094548,-0.14874569,-0.036957346
306,3.0599999999999787,-0.3196528,-0.39557186,-0.8620625,-0.040927973,-0.1459968,-0.02687807
307,3.0699999999999785,-0.29867595,-0.38185155,-0.8727339,-0.029932396,-0.13362677,-0.029321533
308,3.0799999999999783,-0.27824792,-0.37489992,-0.86822134,-0.049632803,-0.11789699,-0.05024367
309,3.089999999999978,-0.27824792,-0.37489992,-0.86822134,-0.049632803,-0.11789699,-0.05024367
310,3.099999999999978,-0.28666306,-0.38410777,-0.8511472,-0.049632803,-0.11789699,-0.05024367
311,3.1099999999999777,-0.28818756,-0.48545516,-0.8318778,-0.062308256,-0.054519724,-0.046883907
312,3.1199999999999775,-0.28178474,-0.50002915,-0.83065826,-0.032528576,-0.12751812,-0.029321533
313,3.1299999999999772,-0.28910223,-0.491797,-0.83571947,0.0009162979,-0.17623462,-0.02397646
314,3.139999999999977,-0.29635876,-0.46996644,-0.85120827,0.035277467,-0.19058995,-0.016340645
315,3.149999999999977,-0.30459094,-0.44283074,-0.87742925,0.056046885,-0.17211129,-0.015118915
316,3.1599999999999766,-0.30459094,-0.44283074,-0.87742925,0.021380283,-0.14065172,-0.01786781
317,3.1699999999999764,-0.32526287,-0.40441385,-0.8820027,-0.061850104,-0.11438452,-0.03940081
318,3.179999999999976,-0.33672696,-0.40441385,-0.8557816,-0.087659165,-0.116980694,-0.045662176
319,3.189999999999976,-0.3574599,-0.4113045,-0.8252311,-0.09010262,-0.1133155,-0.039553523
320,3.1999999999999758,-0.36544815,-0.41368267,-0.8048031,-0.043982297,-0.086132,-0.013591751
321,3.2099999999999755,-0.36191136,-0.4161218,-0.8149866,0.01695151,-0.051465396,0.015882496
322,3.2199999999999753,-0.34703246,-0.42636633,-0.8361463,0.06291912,-0.0096211275,0.046578474
323,3.229999999999975,-0.339593,-0.43411067,-0.84279305,0.06780604,-0.0010690142,0.049021937
324,3.239999999999975,-0.32514092,-0.48179638,-0.84450054,0.03970624,0.0096211275,0.02321288
325,3.2499999999999747,-0.33300725,-0.5022854,-0.82773125,0.019089539,0.004581489,-0.0050396384
326,3.2599999999999745,-0.3506302,-0.5116152,-0.8146817,0.0056505036,0.0009162979,-0.025961773
327,3.2699999999999743,-0.35563052,-0.49795586,-0.80803496,-0.0016798794,0.006872234,-0.033292156
328,3.279999999999974,-0.34941062,-0.47600338,-0.8092545,-0.010231993,0.011759156,-0.035888333
329,3.289999999999974,-0.34941062,-0.39508402,-0.8058397,0.004428773,0.031306844,-0.04932737
330,3.2999999999999736,-0.34941062,-0.39508402,-0.8058397,0.004428773,0.031306844,-0.04932737
331,3.3099999999999734,-0.357094,-0.38154665,-0.82998747,0.06887506,0.073303826,-0.04046982
332,3.319999999999973,-0.357094,-0.38154665,-0.82998747,0.10644327,0.12843442,-0.03436117
333,3.329999999999973,-0.32989728,-0.3838029,-0.81748676,0.14294247,0.16401732,-0.03924809
334,3.3399999999999728,-0.32245782,-0.39154723,-0.8221821,0.17104226,0.17516561,-0.036651913
335,3.3499999999999726,-0.32245782,-0.39154723,-0.8221821,0.17104226,0.17516561,-0.036651913
336,3.3599999999999723,-0.29940772,-0.39587677,-0.8370001,0.17104226,0.17516561,-0.036651913
337,3.369999999999972,-0.25160006,-0.42295152,-0.87419736,0.1518,0.111635625,-0.0096211275
338,3.379999999999972,-0.21830542,-0.47795472,-0.9063333,0.017256944,0.086437434,-0.005497787
339,3.3899999999999717,-0.21391493,-0.5349702,-0.9187731,-0.075594574,0.057726767,-0.01572978
340,3.3999999999999715,-0.23403804,-0.55741054,-0.89188135,-0.075594574,0.057726767,-0.01572978
341,3.4099999999999713,-0.23403804,-0.55741054,-0.89188135,-0.17165314,-0.003970624,-0.05024367
342,3.419999999999971,-0.3067862,-0.5098468,-0.8113278,-0.20066923,-0.043218717,-0.07727446
343,3.429999999999971,-0.3764244,-0.42874455,-0.7657764,-0.129198,-0.09162979,-0.09254608
344,3.4399999999999706,-0.41978058,-0.3690459,-0.7576662,-0.025198191,-0.08002335,-0.07467828
345,3.4499999999999704,-0.42215878,-0.33648303,-0.77900887,0.05131268,-0.00870483,-0.052534413
346,3.45999999999997,-0.37081432,-0.32209197,-0.8088887,0.1151481,0.11010846,-0.028099801
347,3.46999999999997,-0.33440974,-0.33953202,-0.82980454,0.1282817,0.1554652,-0.019700404
348,3.47999999999997,-0.28166276,-0.40648714,-0.85181797,0.087659165,0.172264,-0.009010263
349,3.4899999999999696,-0.2697718,-0.46295384,-0.83639026,0.03283401,0.124311075,-0.017715093
350,3.4999999999999694,-0.2862972,-0.4961265,-0.8180965,0.030085113,0.03145956,-0.052839845
351,3.509999999999969,-0.3117255,-0.50887114,-0.8055348,0.030085113,0.03145956,-0.052839845
352,3.519999999999969,-0.30745694,-0.44606262,-0.8316339,0.0777326,0.059864793,-0.051465396
353,3.5299999999999687,-0.27465016,-0.41288993,-0.8687092,0.08231409,0.08552113,-0.05024367
354,3.5399999999999685,-0.27465016,-0.41288993,-0.8687092,0.08231409,0.08552113,-0.05024367
355,3.5499999999999683,-0.24861206,-0.40496266,-0.89340574,0.08231409,0.08552113,-0.05024367
356,3.559999999999968,-0.24105065,-0.41764635,-0.9077969,-0.095294975,0.11362094,-0.089491755
357,3.569999999999968,-0.24105065,-0.41764635,-0.9077969,-0.095294975,0.11362094,-0.089491755
358,3.5799999999999677,-0.24105065,-0.41764635,-0.9077969,-0.095294975,0.11362094,-0.089491755
359,3.5899999999999674,-0.32947046,-0.4422819,-0.82602376,-0.065209866,0.01863139,-0.058337633
360,3.5999999999999672,-0.32947046,-0.4422819,-0.82602376,-0.065209866,0.01863139,-0.058337633
361,3.609999999999967,-0.32995826,-0.43886706,-0.82657266,-0.03970624,0.022449298,-0.04718934
362,3.619999999999967,-0.31404272,-0.46953958,-0.84163445,0.044135015,0.07437284,0.004581489
363,3.6299999999999666,-0.3081887,-0.49429715,-0.82809705,0.034055736,0.100029185,0.02275473
364,3.6399999999999664,-0.29019985,-0.5350312,-0.796205,0.030085113,0.123242065,0.047036625
365,3.649999999999966,-0.28147984,-0.54808074,-0.78376526,0.037415497,0.107359566,0.066737026
366,3.659999999999966,-0.2763576,-0.5392388,-0.7682766,0.053603426,0.057421334,0.0804815
367,3.6699999999999657,-0.260503,-0.5055173,-0.7607151,0.08460484,-0.009468411,0.09941832
368,3.6799999999999655,-0.23952618,-0.49076036,-0.7718743,0.10064005,-0.021533,0.10323623
369,3.6899999999999653,-0.16982698,-0.49716315,-0.9138948,0.09193522,0.014966198,0.09193522
370,3.699999999999965,-0.16982698,-0.49716315,-0.9138948,0.010537425,0.102319926,0.070249505
371,3.709999999999965,-0.16336319,-0.5103346,-0.9209684,-0.22571471,0.09468412,0.05299256
372,3.7199999999999647,-0.16336319,-0.5103346,-0.9209684,-0.22571471,0.09468412,0.05299256
373,3.7299999999999645,-0.17281497,-0.5098468,-0.9054797,-0.35918877,-0.0842994,0.052839845
374,3.7399999999999642,-0.23409903,-0.50161463,-0.8199259,-0.41615194,-0.1591304,0.046731193
375,3.749999999999964,-0.23409903,-0.50161463,-0.8199259,-0.41615194,-0.1591304,0.046731193
376,3.759999999999964,-0.2528806,-0.48515025,-0.8037664,-0.43554693,-0.1873829,0.04917465
377,3.7699999999999636,-0.28879735,-0.45606318,-0.78986317,-0.44868052,-0.22770002,0.052839845
378,3.7799999999999634,-0.31867713,-0.3971573,-0.7582759,-0.36377025,-0.3126103,0.08674286
379,3.789999999999963,-0.3146525,-0.39233997,-0.7738866,-0.29031372,-0.3193298,0.11056661
380,3.799999999999963,-0.3035543,-0.38947394,-0.81864536,-0.29031372,-0.3193298,0.11056661
381,3.8099999999999627,-0.29580995,-0.39294976,-0.8579769,-0.24587326,-0.21533,0.1226312
382,3.8199999999999625,-0.2944684,-0.40380403,-0.89096665,-0.257327,-0.15683965,0.11988231
383,3.8299999999999623,-0.3031884,-0.40435287,-0.8954181,-0.26358834,-0.12873985,0.1160644
384,3.839999999999962,-0.31831124,-0.40148684,-0.89316183,-0.2576324,-0.10430524,0.11957687
385,3.849999999999962,-0.31831124,-0.40148684,-0.89316183,-0.2576324,-0.10430524,0.11957687
386,3.8599999999999617,-0.32818988,-0.39423034,-0.8860273,-0.20250183,-0.117438845,0.13347405
387,3.8699999999999615,-0.35374016,-0.37002158,-0.8778561,-0.17440203,-0.12095132,0.13607024
388,3.8799999999999613,-0.37075335,-0.3574599,-0.889869,-0.12064589,-0.11804971,0.14996742
389,3.889999999999961,-0.36861908,-0.3609357,-0.9063333,-0.082619525,-0.12156218,0.15378532
390,3.899999999999961,-0.3670336,-0.36776537,-0.91895604,-0.059406646,-0.117744274,0.15149458
391,3.9099999999999606,-0.36428955,-0.38246134,-0.93822545,-0.023823744,-0.10277808,0.14065172
392,3.9199999999999604,-0.3612406,-0.39124236,-0.94536,-0.0067195175,-0.0954477,0.12858713
393,3.92999999999996,-0.36361876,-0.40441385,-0.94231105,0.014049901,-0.0720821,0.11148291
394,3.93999999999996,-0.36361876,-0.40441385,-0.94231105,0.02855795,-0.037873644,0.0954477
395,3.9499999999999598,-0.37965629,-0.3907545,-0.9104799,0.06246097,0.03436117,0.07086037
396,3.9599999999999596,-0.3916082,-0.37368035,-0.8947473,0.09407325,0.07238753,0.052687127
397,3.9699999999999593,-0.40020627,-0.34788615,-0.8761487,0.17608191,0.11911872,0.02107485
398,3.979999999999959,-0.39099842,-0.34441036,-0.87559986,0.20525073,0.14004086,0.018784106
399,3.989999999999959,-0.36654577,-0.34959355,-0.87627065,0.24327709,0.13790283,0.0154243475
400,3.9999999999999587,-0.34544697,-0.36654577,-0.8846248,0.29031372,0.08933904,0.004886922
401,4.009999999999959,-0.33599523,-0.38355896,-0.89212525,0.29031372,0.08933904,0.004886922
402,4.019999999999959,-0.33599523,-0.38355896,-0.89212525,0.31138855,0.055283304,-0.0035124752
403,4.0299999999999585,-0.33154374,-0.41374367,-0.87803906,0.31520647,0.056505036,-0.025503624
404,4.039999999999958,-0.34136137,-0.42252466,-0.8677945,0.31520647,0.056505036,-0.025503624
405,4.049999999999958,-0.34136137,-0.42252466,-0.8677945,0.31520647,0.056505036,-0.025503624
406,4.059999999999958,-0.34136137,-0.42252466,-0.8677945,0.29810223,0.05513059,-0.034055736
407,4.069999999999958,-0.37209487,-0.39935255,-0.8766975,0.33383787,-0.105832405,-0.057726767
408,4.079999999999957,-0.36977768,-0.37691224,-0.88035625,0.35613444,-0.13255776,-0.062308256
409,4.089999999999957,-0.35520366,-0.3714851,-0.87883174,0.37827832,-0.14950927,-0.06337727
410,4.099999999999957,-0.33617815,-0.38983983,-0.86913604,0.38805214,-0.15424347,-0.062002823
411,4.109999999999957,-0.32306764,-0.41160935,-0.8497447,0.3744604,-0.14462234,-0.06093381
412,4.119999999999957,-0.31892106,-0.45191658,-0.8038884,0.35338554,-0.1020145,-0.071013086
413,4.129999999999956,-0.32190904,-0.47039333,-0.78467995,0.35201108,-0.07513642,-0.07849618
414,4.139999999999956,-0.33886123,-0.4864308,-0.73638445,0.4381431,0.06566802,-0.118966006
415,4.149999999999956,-0.33886123,-0.4864308,-0.73638445,0.4381431,0.06566802,-0.118966006
416,4.159999999999956,-0.3463007,-0.42270756,-0.76016635,0.4615087,0.06704246,-0.13469578
417,4.1699999999999555,-0.3374587,-0.3521547,-0.8116327,0.41615194,0.053297993,-0.09819659
418,4.179999999999955,-0.3374587,-0.3521547,-0.8116327,0.41615194,0.053297993,-0.09819659
419,4.189999999999955,-0.28105298,-0.38593715,-0.8247433,0.19486602,0.09850202,-0.01786781
420,4.199999999999955,-0.2367821,-0.49813882,-0.79809535,0.19486602,0.09850202,-0.01786781
421,4.209999999999955,-0.2426361,-0.5628987,-0.76132494,0.04428773,0.07192938,-0.005192355
422,4.2199999999999545,-0.2558076,-0.58241206,-0.7490071,0.087201014,0.06734789,-0.0012217305
423,4.229999999999954,-0.26410076,-0.55716664,-0.76205665,0.14966199,0.07009678,-0.016798794
424,4.239999999999954,-0.27910164,-0.4941142,-0.8131572,0.15210545,0.09208794,-0.03756821
425,4.249999999999954,-0.29282197,-0.4494165,-0.83041435,0.10415252,0.123547494,-0.05024367
426,4.259999999999954,-0.29843205,-0.4279518,-0.8180965,0.0355829,0.10949759,-0.0580322
427,4.269999999999953,-0.29995653,-0.43520832,-0.8073032,0.0076358155,0.0936151,-0.054519724
428,4.279999999999953,-0.30837163,-0.46149033,-0.77974063,-0.009162978,0.034972034,-0.035888333
429,4.289999999999953,-0.30202982,-0.47801572,-0.7702279,0.010842858,-0.032070424,-0.017256944
430,4.299999999999953,-0.286907,-0.48374772,-0.76565444,0.020463986,-0.016187929,-0.00015271631
431,4.3099999999999525,-0.275138,-0.4885651,-0.77181333,0.020463986,-0.016187929,-0.00015271631
432,4.319999999999952,-0.27446723,-0.5022244,-0.7784601,0.011453724,0.020463986,0.008246681
433,4.329999999999952,-0.28495565,-0.5247867,-0.7894973,-0.0009162979,0.028863383,0.019242255
434,4.339999999999952,-0.2883705,-0.52332324,-0.79150957,-0.011911872,0.014202617,0.025198191
435,4.349999999999952,-0.2941635,-0.51411533,-0.8048031,-0.025198191,-0.0016798794,0.025198191
436,4.3599999999999515,-0.30837163,-0.4733203,-0.81956,-0.054519724,-0.016493361,0.02397646
437,4.369999999999951,-0.31526232,-0.45295325,-0.82529205,-0.066737026,-0.02275473,0.023823744
438,4.379999999999951,-0.33904418,-0.39215705,-0.8223651,-0.0936151,-0.0290161,0.02611449
439,4.389999999999951,-0.34404445,-0.38923004,-0.8097424,-0.087659165,-0.015577064,0.045662176
440,4.399999999999951,-0.26385686,-0.45691693,-0.7998637,-0.029474247,0.01786781,0.09850202
441,4.40999999999995,-0.26385686,-0.45691693,-0.7998637,-0.029474247,0.01786781,0.09850202
442,4.41999999999995,-0.2420873,-0.47923526,-0.8144378,-0.026725354,0.00076358154,0.0729984
443,4.42999999999995,-0.28641915,-0.51435924,-0.89535713,-0.05131268,0.028710667,0.051923547
444,4.43999999999995,-0.28641915,-0.51435924,-0.89535713,-0.05131268,0.028710667,0.051923547
445,4.4499999999999496,-0.32410428,-0.5108225,-0.9323105,-0.05131268,0.028710667,0.051923547
446,4.459999999999949,-0.32081142,-0.5098468,-0.9230417,-0.10399981,0.047800206,0.03924809
447,4.469999999999949,-0.3305071,-0.50045604,-0.8823075,-0.29016098,-0.07544186,-0.020158553
448,4.479999999999949,-0.34306878,-0.49021152,-0.85236686,-0.31306845,-0.11224649,-0.029932396
449,4.489999999999949,-0.3389222,-0.47990605,-0.83004844,-0.29092458,-0.1255328,-0.02733622
450,4.4999999999999485,-0.31605503,-0.47197875,-0.83041435,-0.25060746,-0.122783914,-0.019700404
451,4.509999999999948,-0.30904242,-0.46905175,-0.8566963,-0.2322815,-0.122783914,-0.018325957
452,4.519999999999948,-0.3030055,-0.46667355,-0.8761487,-0.21975878,-0.14950927,-0.019394971
453,4.529999999999948,-0.3030055,-0.46667355,-0.8761487,-0.21975878,-0.14950927,-0.019394971
454,4.539999999999948,-0.3030055,-0.46667355,-0.8761487,-0.22678372,-0.18127427,-0.047494773
455,4.549999999999947,-0.31068885,-0.47551554,-0.87901473,-0.21212296,-0.17989981,-0.03145956
456,4.559999999999947,-0.32367742,-0.46283188,-0.85444015,-0.3089451,-0.12690726,-0.086132
457,4.569999999999947,-0.3383734,-0.44325754,-0.81102294,-0.35185838,-0.11133019,-0.09743301
458,4.579999999999947,-0.354228,-0.40813357,-0.74687284,-0.32375857,-0.105068825,-0.09239337
459,4.589999999999947,-0.38130274,-0.39697438,-0.7364454,-0.2237294,-0.077579886,-0.06994407
460,4.599999999999946,-0.38130274,-0.39697438,-0.7364454,-0.12996158,-0.030543262,-0.04016439
461,4.609999999999946,-0.357033,-0.40929216,-0.8174257,0.008857546,0.024129177,0.022907447
462,4.619999999999946,-0.34813008,-0.41417053,-0.82803607,0.046883907,0.021991149,0.029321533
463,4.629999999999946,-0.34813008,-0.41417053,-0.82803607,0.046883907,0.021991149,0.029321533
464,4.6399999999999455,-0.30654228,-0.44087937,-0.8760267,0.13942999,0.08597928,0.030848695
465,4.649999999999945,-0.29013887,-0.468442,-0.84382975,0.05757405,0.07696902,0.024281893
466,4.659999999999945,-0.29013887,-0.468442,-0.84382975,0.05757405,0.07696902,0.024281893
467,4.669999999999945,-0.30629835,-0.47868645,-0.82730436,0.052839845,0.05497787,0.026725354
468,4.679999999999945,-0.3374587,-0.47258857,-0.8388904,0.110413894,0.024892759,0.06154467
469,4.689999999999944,-0.33843437,-0.44923353,-0.85236686,0.14584407,0.03359759,0.05681047
470,4.699999999999944,-0.33733675,-0.4133168,-0.8859054,0.17654006,0.041080687,0.04841107
471,4.709999999999944,-0.32654345,-0.3840468,-0.9115166,0.17654006,0.041080687,0.04841107
472,4.719999999999944,-0.29934675,-0.3595332,-0.91395575,0.15836681,0.03726278,0.0030543262
473,4.729999999999944,-0.28672403,-0.37307054,-0.90395516,0.14126259,0.04810564,-0.018020526
474,4.739999999999943,-0.28672403,-0.37307054,-0.90395516,0.09987647,0.052687127,-0.057421334
475,4.749999999999943,-0.24239218,-0.47899136,-0.8836491,0.07192938,0.021991149,-0.07574729
476,4.759999999999943,-0.22854991,-0.5125299,-0.8874908,0.043066,-0.01863139,-0.096516706
477,4.769999999999943,-0.23172083,-0.5622279,-0.8815758,-0.023060163,-0.1301143,-0.16997325
478,4.7799999999999425,-0.26739365,-0.5624109,-0.86681885,-0.069791354,-0.20631973,-0.2396119
479,4.789999999999942,-0.31355488,-0.5305188,-0.8564524,-0.069791354,-0.20631973,-0.2396119
480,4.799999999999942,-0.3667897,-0.4688688,-0.82949966,-0.14889841,-0.22999077,-0.29993483
481,4.809999999999942,-0.38282722,-0.43429363,-0.8076691,-0.16508633,-0.20693061,-0.2941316
482,4.819999999999942,-0.38892514,-0.37276566,-0.7660813,-0.19165897,-0.11301007,-0.26160303
483,4.8299999999999415,-0.38270527,-0.33947104,-0.72888404,-0.18997909,-0.039858956,-0.23380867
484,4.839999999999941,-0.37752202,-0.33599523,-0.7122977,-0.16722436,0.015271631,-0.20937407
485,4.849999999999941,-0.38618106,-0.35697204,-0.71266353,-0.12751812,0.07666359,-0.16417004
486,4.859999999999941,-0.3731315,-0.4510629,-0.74205554,-0.086132,0.16752979,-0.030848695
487,4.869999999999941,-0.35965514,-0.48661375,-0.7497389,-0.058337633,0.17501289,0.019394971
488,4.87999999999994,-0.35965514,-0.48661375,-0.7497389,-0.058337633,0.17501289,0.019394971
489,4.88999999999994,-0.3264215,-0.51576185,-0.7929121,0.04428773,0.17455475,0.070249505
490,4.89999999999994,-0.3264215,-0.51576185,-0.7929121,0.063682705,0.19181168,0.076358154
491,4.90999999999994,-0.30233473,-0.45685592,-0.846025,0.047494773,0.21609358,0.07620544
492,4.9199999999999395,-0.30398116,-0.4232564,-0.85181797,0.004581489,0.23533584,0.0795652
493,4.929999999999939,-0.30806676,-0.3954499,-0.8483422,-0.053145275,0.24846944,0.0888809
494,4.939999999999939,-0.30605444,-0.39301074,-0.85468405,-0.09254608,0.25427267,0.10445796
495,4.949999999999939,-0.30605444,-0.39301074,-0.85468405,-0.14049901,0.26618454,0.12003502
496,4.959999999999939,-0.2534904,-0.42398816,-0.88053924,-0.21044308,0.28038713,0.1207986
497,4.9699999999999385,-0.19604802,-0.46606377,-0.89456433,-0.27259862,0.26053402,0.09117164
498,4.979999999999938,-0.19604802,-0.46606377,-0.89456433,-0.3182608,0.19058995,0.03604105
499,4.989999999999938,-0.19946286,-0.46996644,-0.8965157,-0.34666604,0.10354166,-0.017562376
500,4.999999999999938,-0.19946286,-0.46996644,-0.8965157,-0.38774672,-0.06765333,-0.094225965
501,5.009999999999938,-0.19946286,-0.46996644,-0.8965157,-0.38774672,-0.06765333,-0.094225965
502,5.019999999999937,-0.25660032,-0.45033115,-0.89291793,-0.44073927,-0.15347989,-0.13454308
503,5.029999999999937,-0.34026375,-0.46490517,-0.85559875,-0.45753807,-0.20372356,-0.14431691
504,5.039999999999937,-0.34026375,-0.46490517,-0.85559875,-0.45753807,-0.20372356,-0.14431691
505,5.049999999999937,-0.35233763,-0.45899022,-0.81876725,-0.35705075,-0.21639901,-0.13500121
506,5.0599999999999365,-0.3302022,-0.42307347,-0.7643739,-0.29978213,-0.18173242,-0.10399981
507,5.069999999999936,-0.3302022,-0.42307347,-0.7643739,-0.29978213,-0.18173242,-0.10399981
508,5.079999999999936,-0.2769064,-0.3234335,-0.7913876,-0.17012598,-0.06383542,-0.04642576
509,5.089999999999936,-0.2769064,-0.3234335,-0.7913876,-0.17012598,-0.06383542,-0.04642576
510,5.099999999999936,-0.27099144,-0.28708994,-0.86730665,-0.17654006,-0.013744468,-0.045356743
511,5.1099999999999355,-0.2778211,-0.31453055,-0.90115017,-0.24938573,0.056505036,-0.049785517
512,5.119999999999935,-0.28349215,-0.36538717,-0.9376157,-0.2750421,0.05024367,-0.04627304
513,5.129999999999935,-0.2819067,-0.37563166,-0.94139636,-0.28237244,0.046578474,-0.047494773
514,5.139999999999935,-0.28727287,-0.4492945,-0.9507263,-0.30665436,0.010995574,-0.04260785
515,5.149999999999935,-0.29861498,-0.4726495,-0.9232856,-0.2817616,-0.03390302,-0.039858956
516,5.159999999999934,-0.30904242,-0.46923468,-0.90102816,-0.24602598,-0.065515295,-0.037110064
517,5.169999999999934,-0.35550857,-0.3650823,-0.8505984,-0.14767668,-0.1160644,-0.028863383
518,5.179999999999934,-0.35550857,-0.3650823,-0.8505984,-0.081397794,-0.1339322,-0.030848695
519,5.189999999999934,-0.38599813,-0.30873755,-0.85504985,0.00061086525,-0.121256754,-0.03772093
520,5.199999999999934,-0.39612067,-0.2684303,-0.89121056,0.06490443,-0.06352998,-0.019242255
521,5.209999999999933,-0.38569325,-0.26068595,-0.91798043,0.084146686,-0.01572978,-0.00580322
522,5.219999999999933,-0.26983282,-0.34825203,-0.9479211,0.029321533,0.094989546,0.011759156
523,5.229999999999933,-0.24592897,-0.41087765,-0.9123093,0.029321533,0.094989546,0.011759156
524,5.239999999999933,-0.2581858,-0.450819,-0.87931955,-0.034972034,0.04932737,-0.04230242
525,5.2499999999999325,-0.2581858,-0.450819,-0.87931955,-0.034972034,0.04932737,-0.04230242
526,5.259999999999932,-0.28806558,-0.47624728,-0.8480983,-0.041996986,0.015118915,-0.06307184
527,5.269999999999932,-0.3634968,-0.4469163,-0.8321827,-0.025961773,-0.00061086525,-0.05787948
528,5.279999999999932,-0.37593657,-0.39532796,-0.834378,-0.007483099,-0.0053450707,-0.052839845
529,5.289999999999932,-0.38508344,-0.3339829,-0.8352316,0.052534413,-0.0025961774,-0.056199603
530,5.299999999999931,-0.3744121,-0.3164209,-0.84315896,0.052534413,-0.0025961774,-0.056199603
531,5.309999999999931,-0.3322145,-0.30452996,-0.87791705,0.17440203,0.040927973,-0.018936822
532,5.319999999999931,-0.29495624,-0.31605503,-0.89108855,0.18387043,0.07895433,0.0030543262
533,5.329999999999931,-0.2464778,-0.3533133,-0.89157635,0.17012598,0.09468412,0.0065668016
534,5.339999999999931,-0.22641563,-0.39258388,-0.8748072,0.13973543,0.07620544,-0.0033597588
535,5.34999999999993,-0.22208612,-0.4314886,-0.84992766,0.12660182,0.04795292,-0.009468411
536,5.35999999999993,-0.23367217,-0.46466127,-0.8370001,0.13057245,0.0053450707,-0.02031127
537,5.36999999999993,-0.25983223,-0.4444162,-0.86425775,0.13316862,0.0041233404,-0.033750303
538,5.37999999999993,-0.25983223,-0.4444162,-0.86425775,0.12950343,-0.0021380284,-0.041080687
539,5.3899999999999295,-0.26763758,-0.41819513,-0.88078314,0.12980886,-0.018020526,-0.05207626
540,5.399999999999929,-0.27532095,-0.4012429,-0.9020039,0.12003502,-0.03634648,-0.050701816
541,5.409999999999929,-0.27080846,-0.39788908,-0.91712666,0.07360926,-0.056199603,-0.042455133
542,5.419999999999929,-0.27465016,-0.40179175,-0.9209684,0.04795292,-0.05879578,-0.03772093
543,5.429999999999929,-0.28233355,-0.42020744,-0.8706606,-0.034055736,-0.094531395,-0.00870483
544,5.4399999999999284,-0.3070911,-0.44362345,-0.8228529,-0.034055736,-0.094531395,-0.00870483
545,5.449999999999928,-0.31654286,-0.46210015,-0.7871801,0.0125227375,-0.11866058,0.014966198
546,5.459999999999928,-0.33160472,-0.45880726,-0.79809535,0.050396383,-0.105068825,0.021227567
547,5.469999999999928,-0.3392881,-0.44722122,-0.81632805,0.059864793,-0.08659015,0.033444874
548,5.479999999999928,-0.3392881,-0.44722122,-0.81632805,0.059864793,-0.08659015,0.033444874
549,5.489999999999927,-0.3392881,-0.44722122,-0.81632805,0.059864793,-0.08659015,0.033444874
550,5.499999999999927,-0.3392881,-0.44722122,-0.81632805,0.059864793,-0.08659015,0.033444874
551,5.509999999999927,-0.28233355,-0.4216709,-0.8740754,0.022143865,0.019394971,0.064599
552,5.519999999999927,-0.28105298,-0.41093862,-0.8580988,-0.009468411,-0.0015271631,0.05955936
553,5.5299999999999265,-0.2923341,-0.38794947,-0.8199868,-0.030085113,-0.024892759,0.063224554
554,5.539999999999926,-0.30428603,-0.37386328,-0.8017541,-0.021533,-0.024892759,0.07070765
555,5.549999999999926,-0.3231286,-0.3715461,-0.81754774,0.012370021,-0.011148291,0.09773844
556,5.559999999999926,-0.319043,-0.37599754,-0.8335852,0.019700404,-0.0050396384,0.10751228
557,5.569999999999926,-0.28806558,-0.4028284,-0.8977353,0.0061086523,-0.0038179078,0.12095132
558,5.5799999999999255,-0.2891632,-0.42093918,-0.9218831,-0.036651913,-0.013897184,0.11453723
559,5.589999999999925,-0.31068885,-0.424415,-0.9142607,-0.057268616,-0.032375857,0.10598512
560,5.599999999999925,-0.3392271,-0.43179348,-0.87840486,-0.043676864,-0.041996986,0.10354166
561,5.609999999999925,-0.34319076,-0.43228132,-0.87108743,-0.038789943,-0.038331795,0.10598512
562,5.619999999999925,-0.3503863,-0.41715845,-0.8430979,0.07666359,0.046731193,0.13332134
563,5.629999999999924,-0.3503863,-0.41715845,-0.8430979,0.07666359,0.046731193,0.13332134
564,5.639999999999924,-0.33617815,-0.40343818,-0.8587086,0.12660182,0.06780604,0.150731
565,5.649999999999924,-0.3255068,-0.38587618,-0.863709,0.14004086,0.077579886,0.15439619
566,5.659999999999924,-0.3234945,-0.38733968,-0.8714533,0.15577064,0.10827587,0.15928312
567,5.6699999999999235,-0.32239684,-0.38880318,-0.88267344,0.15683965,0.12293663,0.15928312
568,5.679999999999923,-0.31843323,-0.38740066,-0.89236915,0.15683965,0.12293663,0.15928312
569,5.689999999999923,-0.3139817,-0.3849005,-0.8991988,0.17547104,0.09132435,0.14477506
570,5.699999999999923,-0.3139817,-0.3849005,-0.8991988,0.18661933,0.07666359,0.13881913
571,5.709999999999923,-0.29641974,-0.36782634,-0.91237026,0.21533,0.03283401,0.11346822
572,5.7199999999999225,-0.28318727,-0.3638627,-0.91962683,0.21685717,0.012064588,0.08536842
573,5.729999999999922,-0.28318727,-0.3638627,-0.91962683,0.21685717,0.012064588,0.08536842
574,5.739999999999922,-0.28794363,-0.39307174,-0.9124923,0.13881913,0.0018325958,0.047036625
575,5.749999999999922,-0.29666364,-0.42136607,-0.90194285,0.109650314,-0.0154243475,0.039553523
576,5.759999999999922,-0.31709167,-0.45801452,-0.8841979,0.085673854,-0.08032878,0.023823744
577,5.769999999999921,-0.336605,-0.480028,-0.8675506,0.10949759,-0.1375974,0.011911872
578,5.779999999999921,-0.34971553,-0.480089,-0.8759658,0.17134771,-0.19700404,-0.011911872
579,5.789999999999921,-0.34562993,-0.45874628,-0.90639436,0.21945333,-0.24190263,-0.022449298
580,5.799999999999921,-0.3234945,-0.4299641,-0.94157934,0.25045475,-0.27840182,-0.02687807
581,5.809999999999921,-0.2911755,-0.39868182,-0.97822785,0.25595254,-0.3735441,-0.048563786
582,5.81999999999992,-0.26940596,-0.36398467,-0.98036206,0.21426098,-0.46792278,-0.081397794
583,5.82999999999992,-0.26013714,-0.35044727,-0.89322287,0.13164146,-0.5160284,-0.13683382
584,5.83999999999992,-0.2859923,-0.34264195,-0.8434029,-0.0076358155,-0.4914411,-0.23197608
585,5.84999999999992,-0.31721362,-0.33880025,-0.7857775,-0.12003502,-0.47158796,-0.30375275
586,5.8599999999999195,-0.3339829,-0.3427639,-0.77516717,-0.21151209,-0.47219884,-0.3727805
587,5.869999999999919,-0.38453463,-0.3825223,-0.76589835,-0.26160303,-0.47021353,-0.39767328
588,5.879999999999919,-0.4028284,-0.4278908,-0.7572393,-0.27458394,-0.41523564,-0.35995236
589,5.889999999999919,-0.4028284,-0.4278908,-0.7572393,-0.27458394,-0.41523564,-0.35995236
590,5.899999999999919,-0.4247199,-0.5755824,-0.72254217,-0.22510384,-0.2706133,-0.20861048
591,5.909999999999918,-0.4279518,-0.6068037,-0.72120064,-0.16447547,-0.2591596,-0.12140947
592,5.919999999999918,-0.40904826,-0.5900954,-0.7241276,-0.075594574,-0.25961772,-0.03023783
593,5.929999999999918,-0.40295035,-0.49807784,-0.75345856,-0.0036651916,-0.2603813,0.04352415
594,5.939999999999918,-0.40295035,-0.49807784,-0.75345856,0.040011674,-0.22464569,0.05467244
595,5.949999999999918,-0.32617757,-0.25983223,-0.77217925,0.065209866,-0.1330159,0.03863723
596,5.959999999999917,-0.31459153,-0.21208555,-0.7907169,0.065209866,-0.1330159,0.03863723
597,5.969999999999917,-0.31459153,-0.21208555,-0.7907169,0.065209866,-0.1330159,0.03863723
598,5.979999999999917,-0.24550213,-0.19653587,-0.7887046,-0.00870483,0.09972375,0.009010263
599,5.989999999999917,-0.28080907,-0.36898494,-0.8600502,-0.039553523,0.110413894,0.024740042
600,5.9999999999999165,-0.30654228,-0.45789257,-0.8650505,-0.08857546,0.10170906,0.036651913
601,6.009999999999916,-0.32361645,-0.47600338,-0.8513911,-0.10293079,0.061239243,0.0355829
602,6.019999999999916,-0.37050945,-0.5166155,-0.81724274,-0.06719518,0.040775254,0.039553523
603,6.029999999999916,-0.39471814,-0.500578,-0.79626596,-0.06719518,0.040775254,0.039553523
604,6.039999999999916,-0.40136486,-0.46502712,-0.784558,-0.012064588,0.036193766,0.044745877
605,6.0499999999999154,-0.36813122,-0.395145,-0.787546,0.028099801,0.06093381,0.05467244
606,6.059999999999915,-0.35636225,-0.3918521,-0.8449273,0.050701816,0.14401148,0.04352415
607,6.069999999999915,-0.3506912,-0.40264544,-0.8749901,0.003970624,0.1742493,0.04184427
608,6.079999999999915,-0.3506912,-0.40264544,-0.8749901,0.003970624,0.1742493,0.04184427
609,6.089999999999915,-0.3363001,-0.4619782,-0.8614527,-0.03390302,0.16661349,0.03680463
610,6.099999999999914,-0.34172726,-0.46002686,-0.84157354,-0.06688975,0.15057829,0.03176499
611,6.109999999999914,-0.34172726,-0.46002686,-0.84157354,-0.12461651,0.17715092,0.039858956
612,6.119999999999914,-0.35636225,-0.4862479,-0.7916316,-0.10552697,0.21991149,0.06169739
613,6.129999999999914,-0.35538658,-0.49448007,-0.7861435,-0.07513642,0.23732115,0.08750644
614,6.1399999999999135,-0.34197116,-0.49838275,-0.81083995,-0.03481932,0.23396139,0.107359566
615,6.149999999999913,-0.33843437,-0.48380873,-0.82949966,-0.024892759,0.21197024,0.105068825
616,6.159999999999913,-0.33069003,-0.40978,-0.8668798,-0.016798794,0.13515393,0.095753126
617,6.169999999999913,-0.33123884,-0.395206,-0.8709654,-0.014202617,0.113162786,0.08735373
618,6.179999999999913,-0.29666364,-0.29916382,-0.9283469,-0.023060163,0.011759156,0.05085453
619,6.1899999999999125,-0.29666364,-0.29916382,-0.9283469,-0.05009095,0.03726278,0.02977968
620,6.199999999999912,-0.27245492,-0.38715672,-0.90358925,-0.09437868,0.08323039,0.009773844
621,6.209999999999912,-0.2944684,-0.4446601,-0.86267227,-0.15454891,0.12186762,-0.018936822
622,6.219999999999912,-0.2944684,-0.4446601,-0.86267227,-0.18371773,0.10094548,-0.03481932
623,6.229999999999912,-0.31946984,-0.47002742,-0.8329144,-0.17348573,0.0571159,-0.0346666
624,6.239999999999911,-0.35819164,-0.441977,-0.82828003,-0.13515393,-0.002443461,-0.02687807
625,6.249999999999911,-0.36221626,-0.38849828,-0.8465128,-0.049021937,-0.069027774,-0.011301007
626,6.259999999999911,-0.36221626,-0.38849828,-0.8465128,-0.034513887,-0.050701816,-0.005192355
627,6.269999999999911,-0.36221626,-0.38849828,-0.8465128,-0.034513887,-0.050701816,-0.005192355
628,6.2799999999999105,-0.31154257,-0.363009,-0.9091994,-0.055436023,-0.01786781,-0.007941248
629,6.28999999999991,-0.29385862,-0.3858152,-0.9135899,-0.10094548,0.016035212,-0.019394971
630,6.29999999999991,-0.29306588,-0.4475261,-0.85675734,-0.16920967,-0.011301007,-0.042913284
631,6.30999999999991,-0.3153233,-0.4480749,-0.8229139,-0.16661349,-0.03940081,-0.04153884
632,6.31999999999991,-0.37044844,-0.40496266,-0.790412,-0.09285152,-0.087659165,-0.026267206
633,6.3299999999999095,-0.39471814,-0.35989904,-0.8301094,-0.00580322,-0.098043874,-0.012217305
634,6.339999999999909,-0.38733968,-0.3447762,-0.8502325,-0.00580322,-0.098043874,-0.012217305
635,6.349999999999909,-0.35489875,-0.3237384,-0.8857224,0.030543262,-0.056352317,-0.0022907446
636,6.359999999999909,-0.3398369,-0.33239743,-0.87962455,0.01282817,0.0070249503,0.0035124752
637,6.369999999999909,-0.30995712,-0.39307174,-0.8537083,0.01282817,0.0070249503,0.0035124752
638,6.379999999999908,-0.30251765,-0.44508693,-0.84035397,0.00992656,0.05222898,0.014202617
639,6.389999999999908,-0.31416467,-0.45588025,-0.8340121,0.024892759,0.026725354,0.01695151
640,6.399999999999908,-0.34934965,-0.4235003,-0.845964,0.0804815,-0.048716504,0.018784106
641,6.409999999999908,-0.33379996,-0.3588624,-0.92993236,0.12629639,-0.09483683,0.011911872
642,6.419999999999908,-0.30873755,-0.3582526,-0.95206773,0.061391957,-0.08659015,-0.00076358154
643,6.429999999999907,-0.30873755,-0.3582526,-0.95206773,0.061391957,-0.08659015,-0.00076358154
644,6.439999999999907,-0.292761,-0.3731925,-0.92932254,0.061391957,-0.08659015,-0.00076358154
645,6.449999999999907,-0.292761,-0.3731925,-0.92932254,0.061391957,-0.08659015,-0.00076358154
646,6.459999999999907,-0.3445323,-0.44191605,-0.8271825,-0.13148874,-0.11728613,-0.0777326
647,6.4699999999999065,-0.40795064,-0.48313794,-0.8024249,-0.05497787,-0.04841107,-0.055436023
648,6.479999999999906,-0.4147193,-0.48515025,-0.8054128,-0.05497787,-0.04841107,-0.055436023
649,6.489999999999906,-0.41392657,-0.47197875,-0.7952903,0.0030543262,0.030085113,-0.0346666
650,6.499999999999906,-0.40831652,-0.45728278,-0.78083825,0.022602014,0.03390302,-0.023518313
651,6.509999999999906,-0.4042919,-0.40313327,-0.7712035,0.07147124,0.058643065,-0.023365596
652,6.519999999999905,-0.40764573,-0.37008256,-0.7979734,0.10903945,0.100334615,-0.015882496
653,6.529999999999905,-0.39819396,-0.34672755,-0.8414515,0.13652839,0.18112154,-0.0062613687
654,6.539999999999905,-0.36563107,-0.3530084,-0.8703556,0.13729197,0.24465153,-0.00045814895
655,6.549999999999905,-0.33904418,-0.37093627,-0.8859663,0.11988231,0.27259862,0.0018325958
656,6.559999999999905,-0.30257863,-0.43892804,-0.8881616,0.08827003,0.23823744,-0.00076358154
657,6.569999999999904,-0.29861498,-0.46325874,-0.87858784,0.06780604,0.18677205,-0.004276057
658,6.579999999999904,-0.29861498,-0.46325874,-0.87858784,0.06780604,0.18677205,-0.004276057
659,6.589999999999904,-0.31404272,-0.44429418,-0.8565744,0.0571159,0.15989397,-0.026267206
660,6.599999999999904,-0.34800813,-0.3473983,-0.83078015,0.10598512,0.17852537,-0.01863139
661,6.6099999999999035,-0.33495858,-0.30007848,-0.84437853,0.10598512,0.17852537,-0.01863139
662,6.619999999999903,-0.23916028,-0.34642264,-0.89303994,0.088422745,0.20891592,0.022602014
663,6.629999999999903,-0.22415942,-0.39612067,-0.90401614,-0.03772093,0.20937407,0.01450805
664,6.639999999999903,-0.22415942,-0.39612067,-0.90401614,-0.03772093,0.20937407,0.01450805
665,6.649999999999903,-0.22415942,-0.39612067,-0.90401614,-0.03772093,0.20937407,0.01450805
666,6.659999999999902,-0.30690816,-0.4730154,-0.8712093,-0.12186762,0.047647487,-0.06490443
667,6.669999999999902,-0.31032297,-0.42959824,-0.8464518,-0.116675265,0.02321288,-0.073303826
668,6.679999999999902,-0.29995653,-0.4036211,-0.8271825,-0.12507465,0.002443461,-0.080634214
669,6.689999999999902,-0.3012371,-0.37965629,-0.8084618,-0.12507465,0.002443461,-0.080634214
670,6.699999999999902,-0.3012371,-0.37965629,-0.8084618,-0.12507465,0.002443461,-0.080634214
671,6.709999999999901,-0.3108718,-0.35337427,-0.7879728,-0.12522738,0.03772093,-0.09911288
672,6.719999999999901,-0.36270407,-0.43081784,-0.8245603,-0.12186762,0.07192938,-0.099265605
673,6.729999999999901,-0.36788732,-0.4610635,-0.8247433,-0.13454308,0.10369437,-0.04810564
674,6.739999999999901,-0.3682532,-0.4941752,-0.81651103,-0.09407325,0.0759,-0.02687807
675,6.7499999999999005,-0.3682532,-0.4941752,-0.81651103,-0.01695151,0.08368854,-0.01786781
676,6.7599999999999,-0.32544583,-0.46521008,-0.82669455,0.048258353,0.19150625,0.00045814895
677,6.7699999999999,-0.2815408,-0.43136662,-0.8446834,0.093462385,0.22479841,-0.032375857
678,6.7799999999999,-0.26891813,-0.39770615,-0.860538,0.11927144,0.2443461,-0.06536258
679,6.7899999999999,-0.27440625,-0.3150184,-0.9010892,0.14508049,0.25060746,-0.088422745
680,6.7999999999998995,-0.27440625,-0.3150184,-0.9010892,0.1693624,0.25809056,-0.07971791
681,6.809999999999899,-0.269284,-0.31940886,-0.9224319,0.13973543,0.2848159,-0.05681047
682,6.819999999999899,-0.17964463,-0.34758124,-0.8992598,0.059864793,0.28802297,-0.021838432
683,6.829999999999899,-0.17964463,-0.34758124,-0.8992598,-0.00992656,0.26068676,-0.00870483
684,6.839999999999899,-0.22678153,-0.2953831,-0.94426244,-0.16035213,0.079107046,-0.012675454
685,6.849999999999898,-0.23794071,-0.29690757,-0.9506652,-0.16355917,0.020463986,-0.018478673
686,6.859999999999898,-0.23562351,-0.32715324,-0.96780044,-0.17989981,-0.07971791,-0.027947085
687,6.869999999999898,-0.24288003,-0.3530084,-0.9626781,-0.18952094,-0.082161374,-0.035430185
688,6.879999999999898,-0.24288003,-0.3530084,-0.9626781,-0.18707748,-0.090713486,-0.03894266
689,6.8899999999998975,-0.27215004,-0.40673104,-0.9262736,-0.15485434,-0.13194689,-0.03863723
690,6.899999999999897,-0.30776188,-0.48265013,-0.8262678,-0.120493166,-0.15622878,-0.032223143
691,6.909999999999897,-0.3389832,-0.49722412,-0.7645568,-0.025045475,-0.15928312,0.0050396384
692,6.919999999999897,-0.3389832,-0.49722412,-0.7645568,0.04062254,-0.14156802,0.047036625
693,6.929999999999897,-0.35111806,-0.39355955,-0.78443605,0.04062254,-0.14156802,0.047036625
694,6.9399999999998965,-0.34971553,-0.33611718,-0.8148646,0.11026118,-0.1423316,0.100029185
695,6.949999999999896,-0.34373957,-0.32056746,-0.8340121,0.12492194,-0.150731,0.11499538
696,6.959999999999896,-0.32068944,-0.3055666,-0.907553,0.13576481,-0.13607024,0.118507855
697,6.969999999999896,-0.3096522,-0.31483543,-0.9336521,0.0917825,-0.14737125,0.1085813
698,6.979999999999896,-0.28843147,-0.35904533,-0.9362742,0.0917825,-0.14737125,0.1085813
699,6.989999999999895,-0.28818756,-0.47002742,-0.88913727,-0.031154128,-0.21410827,0.065209866
700,6.999999999999895,-0.28818756,-0.47002742,-0.88913727,-0.066737026,-0.19730948,0.044135015
701,7.009999999999895,-0.37093627,-0.4999682,-0.77858204,-0.038179077,-0.06887506,0.026725354
702,7.019999999999895,-0.37093627,-0.4999682,-0.77858204,-0.038179077,-0.06887506,0.026725354
703,7.0299999999998946,-0.40612125,-0.45862433,-0.75498307,0.14340061,0.020158553,0.08246681
704,7.039999999999894,-0.41410953,-0.40264544,-0.764008,0.1956296,0.043676864,0.10842858
705,7.049999999999894,-0.37508285,-0.3213602,-0.8708435,0.23167065,0.105068825,0.14874569
706,7.059999999999894,-0.37508285,-0.3213602,-0.8708435,0.23167065,0.105068825,0.14874569
707,7.069999999999894,-0.31507936,-0.34111744,-0.91291916,0.114689946,0.182496,0.1525636
708,7.0799999999998935,-0.2948343,-0.4004502,-0.9007233,0.058490347,0.18570304,0.13515393
709,7.089999999999893,-0.29318783,-0.46905175,-0.8818807,0.01695151,0.17073683,0.12629639
710,7.099999999999893,-0.29556602,-0.5318603,-0.84992766,0.029168816,0.17577648,0.12522738
711,7.109999999999893,-0.28330922,-0.5585082,-0.8373049,0.077121735,0.16875152,0.11453723
712,7.119999999999893,-0.2432459,-0.5456416,-0.85456204,0.13148874,0.12018774,0.094225965
713,7.129999999999892,-0.21141478,-0.5119811,-0.892674,0.13087788,0.0627664,0.074830994
714,7.139999999999892,-0.19873111,-0.47155192,-0.9203586,0.08353582,0.022143865,0.05757405
715,7.149999999999892,-0.20732918,-0.42868355,-0.91511434,-0.03894266,0.026267206,0.03970624
716,7.159999999999892,-0.22781818,-0.4179512,-0.8696239,-0.14538592,0.015882496,0.032986723
717,7.169999999999892,-0.23733091,-0.41740242,-0.84004897,-0.204029,-0.0041233404,0.0290161
718,7.179999999999891,-0.26166162,-0.41252404,-0.79742455,-0.204029,-0.0041233404,0.0290161
719,7.189999999999891,-0.29702953,-0.4078287,-0.7759599,-0.23151793,-0.08353582,0.025503624
720,7.199999999999891,-0.3533133,-0.33916613,-0.84358585,-0.08246681,-0.08750644,0.07788532
721,7.209999999999891,-0.33288527,-0.31971377,-0.895784,-0.03359759,-0.06887506,0.08659015
722,7.2199999999998905,-0.30971318,-0.32306764,-0.9232856,-0.031154128,-0.0627664,0.08170322
723,7.22999999999989,-0.30971318,-0.32306764,-0.9232856,-0.031154128,-0.0627664,0.08170322
724,7.23999999999989,-0.24690464,-0.3620943,-0.89145446,-0.055588737,-0.07009678,0.08277224
725,7.24999999999989,-0.26044202,-0.38538834,-0.8396832,-0.118966006,-0.11575896,0.06795876
726,7.25999999999989,-0.2865411,-0.40295035,-0.80510795,-0.12507465,-0.109650314,0.066737026
727,7.269999999999889,-0.32026258,-0.40801162,-0.7883387,-0.113162786,-0.07788532,0.07391469
728,7.279999999999889,-0.3489838,-0.39118138,-0.80736417,-0.086437434,-0.049632803,0.08384126
729,7.289999999999889,-0.3799612,-0.36172843,-0.84163445,-0.04627304,-0.020005837,0.09743301
730,7.299999999999889,-0.3963646,-0.34001982,-0.8727948,-0.0010690142,-0.012370021,0.106137834
731,7.309999999999889,-0.39892572,-0.3314218,-0.91773653,0.0711658,-0.016798794,0.12751812
732,7.319999999999888,-0.37715617,-0.32507995,-0.9507263,0.121256754,-0.01282817,0.14004086
733,7.329999999999888,-0.37715617,-0.32507995,-0.9507263,0.121256754,-0.01282817,0.14004086
734,7.339999999999888,-0.36142352,-0.32014063,-0.9676784,0.13836098,-0.0041233404,0.13637567
735,7.349999999999888,-0.3468495,-0.324897,-0.960178,0.14049901,0.04337143,0.11911872
736,7.3599999999998875,-0.3342878,-0.3389222,-0.94334775,0.14645495,0.076358154,0.10919216
737,7.369999999999887,-0.33178765,-0.3617894,-0.93328613,0.14401148,0.08979719,0.09193522
738,7.379999999999887,-0.3284338,-0.37922946,-0.91791934,0.14523321,0.093462385,0.08460484
739,7.389999999999887,-0.32355547,-0.40258446,-0.9068822,0.14294247,0.094531395,0.060170226
740,7.399999999999887,-0.32355547,-0.40258446,-0.9068822,0.14294247,0.094531395,0.060170226
741,7.4099999999998865,-0.34270293,-0.42837867,-0.8730997,0.14294247,0.094531395,0.060170226
742,7.419999999999886,-0.3377636,-0.4220978,-0.8857834,0.14569137,0.08964448,0.01740966
743,7.429999999999886,-0.3515449,-0.418683,-0.8743193,0.19853121,0.07162395,-0.005497787
744,7.439999999999886,-0.3515449,-0.418683,-0.8743193,0.19853121,0.07162395,-0.005497787
745,7.449999999999886,-0.35904533,-0.39727926,-0.8702337,0.23518312,-0.065973446,0.0015271631
746,7.459999999999885,-0.36288702,-0.3876446,-0.8826125,0.25870144,-0.11102476,0.0018325958
747,7.469999999999885,-0.36288702,-0.3876446,-0.8826125,0.25870144,-0.11102476,0.0018325958
748,7.479999999999885,-0.3594722,-0.39148626,-0.87858784,0.27458394,-0.08903361,-0.0067195175
749,7.489999999999885,-0.3325194,-0.41502422,-0.82931674,0.33643404,0.00290161,-0.015271631
750,7.4999999999998845,-0.30520073,-0.43337893,-0.8185843,0.39019018,0.015577064,-0.006414085
751,7.509999999999884,-0.27379647,-0.44978234,-0.83120704,0.41126502,-0.045356743,0.009773844
752,7.519999999999884,-0.25513685,-0.45697787,-0.8387685,0.36254853,-0.07620544,-0.00015271631
753,7.529999999999884,-0.25946635,-0.45947802,-0.84315896,0.29031372,-0.046120327,-0.026419923
754,7.539999999999884,-0.28635818,-0.45862433,-0.8390124,0.21899518,-0.0027488936,-0.047800206
755,7.5499999999998835,-0.32776302,-0.4455748,-0.79626596,0.13057245,0.033292156,-0.064446285
756,7.559999999999883,-0.3246531,-0.42648828,-0.77839905,0.16905695,-0.0421497,-0.04184427
757,7.569999999999883,-0.29544407,-0.4059383,-0.79053396,0.22708915,-0.12232576,-0.02031127
758,7.579999999999883,-0.25623447,-0.38386387,-0.82937765,0.2098322,-0.101556346,-0.019394971
759,7.589999999999883,-0.24733151,-0.37947336,-0.84059787,0.10125092,0.0062613687,-0.035124753
760,7.599999999999882,-0.26092985,-0.38733968,-0.84163445,0.10125092,0.0062613687,-0.035124753
761,7.609999999999882,-0.304347,-0.40691397,-0.7755331,0.043218717,0.049938235,-0.02107485
762,7.619999999999882,-0.35550857,-0.42551264,-0.71296847,0.11071932,0.013744468,0.02733622
763,7.629999999999882,-0.35550857,-0.42551264,-0.71296847,0.11071932,0.013744468,0.02733622
764,7.6399999999998816,-0.3193479,-0.42892745,-0.7744354,0.22266038,0.048716504,0.10369437
765,7.649999999999881,-0.30946928,-0.44215995,-0.8365122,0.21380283,0.07070765,0.10598512
766,7.659999999999881,-0.29885888,-0.44612357,-0.8602941,0.21380283,0.07070765,0.10598512
767,7.669999999999881,-0.3126402,-0.48136955,-0.877978,0.17348573,0.065515295,0.0983493
768,7.679999999999881,-0.31886008,-0.4984437,-0.87931955,0.082161374,0.01740966,0.082161374
769,7.6899999999998805,-0.31892106,-0.5096029,-0.8650505,0.0664316,-0.0071776668,0.083383106
770,7.69999999999988,-0.30788383,-0.5046026,-0.85133016,0.07269296,-0.01695151,0.061391957
771,7.70999999999988,-0.3012371,-0.51716435,-0.8233407,0.07727446,0.030695979,0.046578474
772,7.71999999999988,-0.29263905,-0.50881016,-0.81120586,0.064751714,0.07819075,0.029168816
773,7.72999999999988,-0.29263905,-0.50881016,-0.81120586,0.064751714,0.07819075,0.029168816
774,7.739999999999879,-0.29227313,-0.49563867,-0.807913,0.039095376,0.098807454,0.012980887
775,7.749999999999879,-0.3269093,-0.47295445,-0.8207796,-0.0070249503,0.049632803,0.004428773
776,7.759999999999879,-0.34691048,-0.44246486,-0.83547556,-0.024892759,-0.02977968,0.0143553335
777,7.769999999999879,-0.34800813,-0.42002448,-0.83815867,-0.030848695,-0.046883907,0.013133603
778,7.779999999999879,-0.34410545,-0.4078287,-0.84315896,-0.038331795,-0.03604105,0.0070249503
779,7.789999999999878,-0.32995826,-0.39996237,-0.8479763,-0.0580322,-0.001985312,-0.005497787
780,7.799999999999878,-0.32709226,-0.40435287,-0.8435248,-0.07666359,0.028405234,-0.021685716
781,7.809999999999878,-0.33508053,-0.4408184,-0.8017541,-0.095294975,0.071013086,-0.02687807
782,7.819999999999878,-0.33508053,-0.4408184,-0.8017541,-0.098043874,0.10644327,-0.020922136
783,7.8299999999998775,-0.32593364,-0.5016756,-0.8023639,-0.08353582,0.12599096,-0.007483099
784,7.839999999999877,-0.32593364,-0.5016756,-0.8023639,-0.03359759,0.124005646,0.029626964
785,7.849999999999877,-0.30690816,-0.51679844,-0.84486634,0.008093964,0.10842858,0.0421497
786,7.859999999999877,-0.30629835,-0.48569906,-0.8769414,0.008093964,0.10842858,0.0421497
787,7.869999999999877,-0.30629835,-0.48569906,-0.8769414,0.0070249503,0.10827587,0.016493361
788,7.879999999999876,-0.3070301,-0.41996354,-0.89236915,0.0070249503,0.10827587,0.016493361
789,7.889999999999876,-0.3070301,-0.41996354,-0.89236915,0.0070249503,0.10827587,0.016493361
790,7.899999999999876,-0.2581858,-0.3971573,-0.86437976,-0.04428773,0.094531395,0.014966198
791,7.909999999999876,-0.24446549,-0.41118255,-0.8616357,-0.055283304,0.09208794,0.016187929
792,7.919999999999876,-0.22226907,-0.46856394,-0.85633045,-0.089491755,0.08078693,0.012217305
793,7.929999999999875,-0.2294646,-0.48710158,-0.85663533,-0.116217114,0.061086524,0.012217305
794,7.939999999999875,-0.2528806,-0.49454108,-0.849013,-0.1441642,0.029168816,0.012217305
795,7.949999999999875,-0.2842239,-0.4723446,-0.8505375,-0.1647809,-0.0025961774,0.009773844
796,7.959999999999875,-0.3233725,-0.4399037,-0.85376936,-0.1704314,-0.052687127,0.0050396384
797,7.9699999999998745,-0.34758124,-0.40978,-0.8382807,-0.150731,-0.07574729,0.003970624
798,7.979999999999874,-0.34642264,-0.383437,-0.819621,-0.10781772,-0.0729984,0.007941248
799,7.989999999999874,-0.33873928,-0.37947336,-0.8118157,-0.087201014,-0.05222898,0.014049901
800,7.999999999999874,-0.3067862,-0.39038864,-0.7859605,-0.0035124752,0.038789943,0.041080687
801,8.009999999999874,-0.3003224,-0.41319484,-0.7802894,-0.0035124752,0.038789943,0.041080687
802,8.019999999999873,-0.2911755,-0.436123,-0.8047421,0.034055736,0.064599,0.062002823
803,8.029999999999873,-0.29330978,-0.43289113,-0.84090275,0.052381694,0.062308256,0.082924955
804,8.039999999999873,-0.30142003,-0.41935372,-0.86645305,0.059864793,0.041691553,0.087964594
805,8.049999999999873,-0.31367683,-0.4001453,-0.9218831,0.065209866,-0.01572978,0.09682214
806,8.059999999999873,-0.28867537,-0.40727988,-0.92889565,0.015271631,-0.05390886,0.08689558
807,8.069999999999872,-0.28635818,-0.41697556,-0.9141387,0.015271631,-0.05390886,0.08689558
808,8.079999999999872,-0.29032183,-0.4305739,-0.8945034,-0.06918049,-0.030085113,0.055741455
809,8.089999999999872,-0.28617525,-0.45142877,-0.8620015,-0.07651087,-0.041080687,0.0421497
810,8.099999999999872,-0.28458977,-0.4723446,-0.8573671,-0.06856962,-0.074067414,0.009315695
811,8.109999999999872,-0.29812714,-0.48271108,-0.8641968,-0.0842994,-0.09605856,-0.009010263
812,8.119999999999871,-0.32953143,-0.4721007,-0.8515131,-0.10873401,-0.09758572,-0.018936822
813,8.129999999999871,-0.35258156,-0.46734434,-0.83962214,-0.10751228,-0.09636399,-0.018936822
814,8.139999999999871,-0.377583,-0.45966098,-0.82577986,-0.05971208,-0.10445796,-0.011301007
815,8.14999999999987,-0.374717,-0.44648945,-0.83181685,0.02855795,-0.11133019,-0.00580322
816,8.15999999999987,-0.35117903,-0.43081784,-0.85413516,0.09193522,-0.07788532,-0.007941248
817,8.16999999999987,-0.31422567,-0.40624323,-0.860416,0.08445212,-0.043829583,-0.021533
818,8.17999999999987,-0.3033104,-0.3876446,-0.84254915,0.046578474,-0.03680463,-0.04505131
819,8.18999999999987,-0.31635994,-0.37489992,-0.8111449,-0.005955936,-0.041996986,-0.067500606
820,8.19999999999987,-0.34325173,-0.39642558,-0.7906559,-0.02321288,-0.03481932,-0.06994407
821,8.20999999999987,-0.34325173,-0.39642558,-0.7906559,0.004428773,0.006872234,-0.03573562
822,8.21999999999987,-0.34928867,-0.42093918,-0.80602264,0.06582073,-0.015882496,-0.012064588
823,8.229999999999869,-0.3319706,-0.43953782,-0.86944103,0.12568553,-0.02031127,0.01282817
824,8.239999999999869,-0.3216651,-0.4355742,-0.87718534,0.14645495,-0.01038471,0.016646078
825,8.249999999999869,-0.2912365,-0.42459795,-0.8599892,0.1525636,0.004276057,0.004276057
826,8.259999999999868,-0.2860533,-0.42160997,-0.8385246,0.1366811,0.0065668016,-0.0067195175
827,8.269999999999868,-0.2860533,-0.42160997,-0.8385246,0.1366811,0.0065668016,-0.0067195175
828,8.279999999999868,-0.31020102,-0.4226466,-0.81096196,0.119729586,-0.015577064,-0.010537425
829,8.289999999999868,-0.31020102,-0.4226466,-0.81096196,0.118507855,-0.018020526,-0.009315695
830,8.299999999999867,-0.33459267,-0.43222034,-0.8578549,0.10720685,0.005192355,0.005192355
831,8.309999999999867,-0.3331292,-0.45277032,-0.89072275,0.07147124,0.025809057,0.019700404
832,8.319999999999867,-0.32995826,-0.47569847,-0.901638,0.034513887,0.031612277,0.023060163
833,8.329999999999867,-0.32453114,-0.49759,-0.8949912,-0.006872234,0.02275473,0.0056505036
834,8.339999999999867,-0.33093393,-0.5073467,-0.8866371,-0.016493361,0.008093964,-0.013897184
835,8.349999999999866,-0.34331274,-0.4985657,-0.8707825,-0.03680463,-0.011759156,-0.06291912
836,8.359999999999866,-0.34331274,-0.4985657,-0.8707825,-0.03680463,-0.011759156,-0.06291912
837,8.369999999999866,-0.34331274,-0.4985657,-0.8707825,-0.03680463,-0.011759156,-0.06291912
838,8.379999999999866,-0.38051,-0.42807376,-0.84474444,-0.048258353,0.08582657,-0.11835514
839,8.389999999999866,-0.39959648,-0.41484126,-0.7963879,-0.045356743,0.18707748,-0.13713925
840,8.399999999999865,-0.39959648,-0.41484126,-0.7963879,-0.045356743,0.18707748,-0.13713925
841,8.409999999999865,-0.37270468,-0.44148916,-0.7889485,0.028252518,0.1498147,-0.09621128
842,8.419999999999865,-0.29105356,-0.46002686,-0.807852,0.03680463,0.15836681,-0.088728175
843,8.429999999999865,-0.29105356,-0.46002686,-0.807852,0.03680463,0.15836681,-0.088728175
844,8.439999999999864,-0.26306412,-0.46234405,-0.8251092,0.020922136,0.14477506,-0.10354166
845,8.449999999999864,-0.25903952,-0.43270817,-0.8580988,-0.07971791,0.057421334,-0.14294247
846,8.459999999999864,-0.2595883,-0.42197582,-0.85724515,-0.106595986,0.03772093,-0.13561209
847,8.469999999999864,-0.23598938,-0.41349974,-0.8288289,-0.106595986,0.014660766,-0.12217305
848,8.479999999999864,-0.21531744,-0.418622,-0.7998637,-0.106595986,0.014660766,-0.12217305
849,8.489999999999863,-0.18842563,-0.43386677,-0.7457752,-0.033750303,-0.06307184,-0.11530081
850,8.499999999999863,-0.18897444,-0.4353303,-0.7408969,-0.011453724,-0.08735373,-0.11255192
851,8.509999999999863,-0.21922012,-0.41423148,-0.7984612,-0.0041233404,-0.09330966,-0.1001819
852,8.519999999999863,-0.24281906,-0.38971785,-0.845781,-0.059406646,-0.08384126,-0.08353582
853,8.529999999999863,-0.25775895,-0.37136313,-0.8754169,-0.11957687,-0.09392053,-0.060628377
854,8.539999999999862,-0.26885715,-0.36270407,-0.8877957,-0.18692477,-0.1151481,-0.034055736
855,8.549999999999862,-0.27074748,-0.3690459,-0.89163744,-0.20647246,-0.11285736,-0.028099801
856,8.559999999999862,-0.2725159,-0.3983159,-0.89127153,-0.25595254,-0.065515295,-0.024892759
857,8.569999999999862,-0.2725159,-0.43283013,-0.8728558,-0.2941316,-0.03772093,-0.034972034
858,8.579999999999862,-0.31812832,-0.47582048,-0.81626713,-0.31978795,-0.039095376,-0.041233405
859,8.589999999999861,-0.34556895,-0.48374772,-0.79742455,-0.29168814,-0.027947085,-0.028863383
860,8.599999999999861,-0.34556895,-0.48374772,-0.79742455,-0.29168814,-0.027947085,-0.028863383
861,8.60999999999986,-0.38301015,-0.5010049,-0.7999857,-0.21242839,-0.012675454,0.004581489
862,8.61999999999986,-0.38301015,-0.5010049,-0.7999857,-0.124769226,0.028252518,0.03680463
863,8.62999999999986,-0.36861908,-0.50002915,-0.8208406,-0.08093964,0.061391957,0.050396383
864,8.63999999999986,-0.33014122,-0.49752906,-0.8745633,-0.050701816,0.110413894,0.050396383
865,8.64999999999986,-0.32770205,-0.46399048,-0.8949303,-0.050701816,0.1067487,0.051618114
866,8.65999999999986,-0.32770205,-0.46399048,-0.8949303,-0.050701816,0.1067487,0.051618114
867,8.66999999999986,-0.32233587,-0.40587732,-0.88047814,-0.054061573,0.06658431,0.0627664
868,8.67999999999986,-0.29532212,-0.36569205,-0.8714533,-0.022907447,-0.007788532,0.06688975
869,8.68999999999986,-0.2826994,-0.35252056,-0.8759048,-0.018020526,-0.013744468,0.063224554
870,8.699999999999859,-0.26221043,-0.3377636,-0.8856005,-0.041233405,0.014049901,0.03604105
871,8.709999999999859,-0.2742843,-0.35441092,-0.8884665,-0.10522154,0.061239243,0.009773844
872,8.719999999999859,-0.29129747,-0.37544873,-0.8820027,-0.15424347,0.07803804,0.0033597588
873,8.729999999999858,-0.30977416,-0.40380403,-0.86822134,-0.18127427,0.0693332,0.014202617
874,8.739999999999858,-0.31209138,-0.4437454,-0.85651344,-0.1554652,0.051159963,0.031612277
875,8.749999999999858,-0.30373722,-0.47191778,-0.8473056,-0.09162979,0.022296581,0.04062254
876,8.759999999999858,-0.27971146,-0.49466303,-0.8438907,-0.046120327,-0.007941248,0.04841107
877,8.769999999999857,-0.23842856,-0.48027194,-0.84218323,-0.018936822,-0.03940081,0.052381694
878,8.779999999999857,-0.23842856,-0.48027194,-0.84218323,-0.018936822,-0.03940081,0.052381694
879,8.789999999999857,-0.23367217,-0.4671004,-0.8349877,-0.03726278,-0.050549097,0.048563786
880,8.799999999999857,-0.234221,-0.43398872,-0.8485861,-0.15683965,-0.096516706,0.033444874
881,8.809999999999857,-0.2423312,-0.43215933,-0.86669695,-0.15683965,-0.096516706,0.033444874
882,8.819999999999856,-0.25489292,-0.43520832,-0.8755389,-0.28115073,-0.16325374,0.026725354
883,8.829999999999856,-0.25489292,-0.43520832,-0.8755389,-0.28115073,-0.16325374,0.026725354
884,8.839999999999856,-0.25489292,-0.43520832,-0.8755389,-0.3115413,-0.19639318,0.027947085
885,8.849999999999856,-0.25489292,-0.43520832,-0.8755389,-0.3115413,-0.19639318,0.027947085
886,8.859999999999856,-0.2920902,-0.4220978,-0.8210235,-0.32360587,-0.24037547,0.043982297
887,8.869999999999855,-0.31337196,-0.39971846,-0.80443716,-0.26908615,-0.16432275,0.052534413
888,8.879999999999855,-0.3246531,-0.38666892,-0.8037664,-0.26908615,-0.16432275,0.052534413
889,8.889999999999855,-0.33672696,-0.35904533,-0.8310241,-0.1863139,-0.11988231,0.07849618
890,8.899999999999855,-0.33501956,-0.34983748,-0.8618186,-0.15470162,-0.10247265,0.09819659
891,8.909999999999854,-0.32879966,-0.35191077,-0.89974767,-0.14737125,-0.09758572,0.108123146
892,8.919999999999854,-0.32764107,-0.36117962,-0.9123093,-0.14248432,-0.110872045,0.11789699
893,8.929999999999854,-0.3319706,-0.37679026,-0.907248,-0.12889257,-0.129198,0.12782355
894,8.939999999999854,-0.32556778,-0.39477912,-0.9006623,-0.093462385,-0.13988814,0.13790283
895,8.949999999999854,-0.32556778,-0.39477912,-0.9006623,-0.06765333,-0.1348485,0.13683382
896,8.959999999999853,-0.32947046,-0.3518498,-0.8773073,-0.065209866,-0.10323623,0.09514226
897,8.969999999999853,-0.32947046,-0.3518498,-0.8773073,-0.065209866,-0.10323623,0.09514226
898,8.979999999999853,-0.35209373,-0.32367742,-0.87791705,-0.07147124,-0.076358154,0.06811147
899,8.989999999999853,-0.38099784,-0.28977302,-0.8829783,-0.069027774,-0.037415497,0.03863723
900,8.999999999999853,-0.40179175,-0.28263843,-0.8993817,-0.05589417,0.0016798794,0.027488936
901,9.009999999999852,-0.40441385,-0.29202923,-0.92609066,-0.019394971,0.0580322,0.01160644
902,9.019999999999852,-0.3987428,-0.31154257,-0.94383556,-0.019394971,0.0580322,0.01160644
903,9.029999999999852,-0.3673385,-0.365875,-0.9374937,0.05787948,0.042760566,-0.0062613687
904,9.039999999999852,-0.36099666,-0.37654635,-0.92804193,0.102319926,0.019700404,-0.015577064
905,9.049999999999851,-0.34959355,-0.3773391,-0.89962566,0.14156802,0.021227567,-0.032528576
906,9.059999999999851,-0.35666716,-0.3646554,-0.87938064,0.15363261,0.05665775,-0.05207626
907,9.069999999999851,-0.36233822,-0.34953257,-0.8582208,0.15958855,0.09330966,-0.07422013
908,9.07999999999985,-0.38160762,-0.3310559,-0.84450054,0.19013181,0.124005646,-0.093767814
909,9.08999999999985,-0.38599813,-0.32038453,-0.8471226,0.22067507,0.13637567,-0.08628472
910,9.09999999999985,-0.36526522,-0.33008024,-0.86968493,0.23762658,0.13408493,-0.06536258
911,9.10999999999985,-0.36526522,-0.33008024,-0.86968493,0.24266621,0.11209377,-0.045662176
912,9.11999999999985,-0.3529474,-0.34270293,-0.87767315,0.23793201,0.079107046,-0.03573562
913,9.12999999999985,-0.34294683,-0.3670336,-0.8884665,0.21731532,0.044898596,-0.032070424
914,9.13999999999985,-0.33843437,-0.37630245,-0.892735,0.21013765,0.035124753,-0.033292156
915,9.14999999999985,-0.34178823,-0.4045358,-0.8860883,0.19440787,0.009315695,-0.032070424
916,9.15999999999985,-0.34904477,-0.42892745,-0.8741364,0.21762075,0.0106901415,-0.025809057
917,9.169999999999849,-0.33843437,-0.45264837,-0.85181797,0.29932398,0.00030543262,0.031001411
918,9.179999999999849,-0.3117255,-0.44709927,-0.8404149,0.3313944,-0.022602014,0.04352415
919,9.189999999999849,-0.3117255,-0.44709927,-0.8404149,0.3313944,-0.022602014,0.04352415
920,9.199999999999848,-0.2909926,-0.3890471,-0.8535864,0.38591412,-0.076052725,0.0061086523
921,9.209999999999848,-0.2909926,-0.3890471,-0.8535864,0.38591412,-0.076052725,0.0061086523
922,9.219999999999848,-0.3389222,-0.36739948,-0.848952,0.3031419,0.008857546,0.009010263
923,9.229999999999848,-0.34252,-0.37026548,-0.82901174,0.3031419,0.008857546,0.009010263
924,9.239999999999847,-0.32825086,-0.40166977,-0.77632576,0.26893342,0.10644327,0.062155537
925,9.249999999999847,-0.30507877,-0.41508517,-0.7447386,0.28099802,0.12843442,0.08536842
926,9.259999999999847,-0.30507877,-0.41508517,-0.7447386,0.28099802,0.12843442,0.08536842
927,9.269999999999847,-0.29532212,-0.41307288,-0.74864125,0.37522396,0.13148874,0.08475755
928,9.279999999999847,-0.3204455,-0.3943523,-0.77876496,0.41080686,0.1244638,0.0936151
929,9.289999999999846,-0.34678853,-0.36447248,-0.8441956,0.41080686,0.1244638,0.0936151
930,9.299999999999846,-0.3360562,-0.37386328,-0.89224714,0.48502702,0.1469131,0.15271631
931,9.309999999999846,-0.2614177,-0.4314276,-0.910297,0.472657,0.14813483,0.1684461
932,9.319999999999846,-0.2614177,-0.4314276,-0.910297,0.472657,0.14813483,0.1684461
933,9.329999999999846,-0.2614177,-0.4314276,-0.910297,0.472657,0.14813483,0.1684461
934,9.339999999999845,-0.14982581,-0.56710625,-0.8748072,0.26557365,0.03680463,0.11499538
935,9.349999999999845,-0.14982581,-0.56710625,-0.8748072,0.18035796,0.008093964,0.05589417
936,9.359999999999845,-0.25592956,-0.51509106,-0.872124,0.043829583,-0.011148291,-0.032986723
937,9.369999999999845,-0.25592956,-0.51509106,-0.872124,-0.05497787,-0.020463986,-0.08368854
938,9.379999999999844,-0.30196884,-0.50069994,-0.8571841,-0.12034045,-0.077121735,-0.14752395
939,9.389999999999844,-0.4074628,-0.47197875,-0.8084008,-0.086132,-0.10720685,-0.10308351
940,9.399999999999844,-0.3872177,-0.450819,-0.7948025,-0.055741455,-0.113162786,-0.061391957
941,9.409999999999844,-0.3527645,-0.4466724,-0.78285056,-0.0290161,-0.10308351,-0.03436117
942,9.419999999999844,-0.33087295,-0.4533801,-0.772789,-0.008246681,-0.09330966,-0.02443461
943,9.429999999999843,-0.32940948,-0.46649066,-0.76821554,0.0050396384,-0.08460484,-0.01695151
944,9.439999999999843,-0.34056866,-0.47045428,-0.7702279,-0.012217305,-0.07009678,0.0010690142
945,9.449999999999843,-0.3401418,-0.46606377,-0.7634592,-0.05421429,-0.044593163,0.01786781
946,9.459999999999843,-0.33593425,-0.4547826,-0.7572393,-0.09132435,-0.0033597588,0.02855795
947,9.469999999999843,-0.33599523,-0.4411233,-0.75498307,-0.09758572,0.01740966,0.029626964
948,9.479999999999842,-0.3501424,-0.4241711,-0.76406896,-0.073303826,0.038331795,0.025961773
949,9.489999999999842,-0.37813184,-0.42057332,-0.79559517,-0.04046982,0.059253927,0.0346666
950,9.499999999999842,-0.39173016,-0.4364279,-0.8413296,-0.00076358154,0.09987647,0.10567969
951,9.509999999999842,-0.3787416,-0.45831943,-0.86334306,-0.00076358154,0.09987647,0.10567969
952,9.519999999999841,-0.3787416,-0.45831943,-0.86334306,-0.0070249503,0.10476339,0.13133603
953,9.529999999999841,-0.34873986,-0.48447952,-0.8715143,-0.020463986,0.09132435,0.13988814
954,9.539999999999841,-0.2906267,-0.50704175,-0.86773354,-0.027641652,0.07651087,0.12889257
955,9.54999999999984,-0.31544524,-0.421427,-0.8729168,-0.020005837,0.09728029,0.04444045
956,9.55999999999984,-0.31544524,-0.421427,-0.8729168,-0.020005837,0.09728029,0.04444045
957,9.56999999999984,-0.3164819,-0.35556954,-0.85815984,-0.025045475,0.13622294,0.038179077
958,9.57999999999984,-0.3164819,-0.35556954,-0.85815984,-0.043676864,0.16172658,0.04642576
959,9.58999999999984,-0.30581054,-0.36136255,-0.8477324,-0.04627304,0.16539176,0.05497787
960,9.59999999999984,-0.2455631,-0.47002742,-0.81218153,-0.058643065,0.17867808,0.049938235
961,9.60999999999984,-0.26190552,-0.50472456,-0.81870633,-0.08552113,0.18219055,0.044898596
962,9.61999999999984,-0.29672462,-0.5274088,-0.82901174,-0.10980303,0.15271631,0.044898596
963,9.62999999999984,-0.3234335,-0.5305188,-0.84193933,-0.10476339,0.12843442,0.04627304
964,9.639999999999839,-0.35124,-0.51222503,-0.85120827,-0.04932737,0.08246681,0.056505036
965,9.649999999999839,-0.34233707,-0.45027018,-0.85041547,0.02687807,0.049938235,0.06566802
966,9.659999999999838,-0.32270175,-0.40526757,-0.84346384,0.06841691,0.05513059,0.07086037
967,9.669999999999838,-0.2903828,-0.36752144,-0.82803607,0.0777326,0.10644327,0.0804815
968,9.679999999999838,-0.2666619,-0.354167,-0.822609,0.06536258,0.13561209,0.079107046
969,9.689999999999838,-0.2666619,-0.354167,-0.822609,0.06536258,0.13561209,0.079107046
970,9.699999999999838,-0.25696623,-0.3506912,-0.8152305,0.025961773,0.16462818,0.07498371
971,9.709999999999837,-0.28708994,-0.41429248,-0.83767086,0.021380283,0.107359566,0.082619525
972,9.719999999999837,-0.278065,-0.4388061,-0.8966987,0.032986723,0.021991149,0.09407325
973,9.729999999999837,-0.24922185,-0.4133778,-0.922066,-0.015118915,-0.067500606,0.073303826
974,9.739999999999837,-0.24922185,-0.4133778,-0.922066,-0.015118915,-0.067500606,0.073303826
975,9.749999999999837,-0.24922185,-0.4133778,-0.922066,-0.024892759,-0.0711658,0.06719518
976,9.759999999999836,-0.26269826,-0.41429248,-0.88956416,-0.1067487,-0.05955936,0.009010263
977,9.769999999999836,-0.2859923,-0.45325816,-0.82986546,-0.14721853,-0.042760566,-0.0047342055
978,9.779999999999836,-0.29715148,-0.48252818,-0.81791353,-0.12385293,-0.057268616,-0.009468411
979,9.789999999999836,-0.30257863,-0.49045542,-0.85584265,-0.07574729,-0.09972375,-0.005192355
980,9.799999999999836,-0.30257863,-0.49045542,-0.85584265,-0.07574729,-0.09972375,-0.005192355
981,9.809999999999835,-0.30257863,-0.49045542,-0.85584265,-0.06429356,-0.14355333,-0.019700404
982,9.819999999999835,-0.31215236,-0.43661085,-0.9034064,-0.06078109,-0.12522738,-0.00870483
983,9.829999999999835,-0.32660443,-0.4054505,-0.88785666,-0.06658431,-0.14737125,-0.044135015
984,9.839999999999835,-0.33081198,-0.39221802,-0.8646846,-0.07284568,-0.11071932,-0.054061573
985,9.849999999999834,-0.33081198,-0.39221802,-0.8646846,-0.07284568,-0.11071932,-0.054061573
986,9.859999999999834,-0.34532502,-0.39612067,-0.8248042,-0.08552113,-0.05589417,-0.06291912
987,9.869999999999834,-0.36636284,-0.39959648,-0.8142548,-0.04642576,-0.04352415,-0.063988134
988,9.879999999999834,-0.36843613,-0.40557244,-0.848769,0.028099801,-0.036957346,-0.040317107
989,9.889999999999834,-0.3406906,-0.40849942,-0.8938326,0.061086524,-0.032986723,-0.026725354
990,9.899999999999833,-0.30739596,-0.436062,-0.89456433,0.065973446,-0.034208454,-0.027794369
991,9.909999999999833,-0.30739596,-0.436062,-0.89456433,0.064751714,-0.02076942,-0.03894266
992,9.919999999999833,-0.29873693,-0.45057508,-0.8728558,0.07192938,0.004886922,-0.04260785
993,9.929999999999833,-0.29745638,-0.4616733,-0.8473665,0.07544186,0.028099801,-0.04886922
994,9.939999999999833,-0.30196884,-0.46356362,-0.8308411,0.0729984,0.035430185,-0.061086524
995,9.949999999999832,-0.3353854,-0.44618458,-0.81675494,0.08536842,0.04886922,-0.081855945
996,9.959999999999832,-0.3353854,-0.44618458,-0.81675494,0.10995574,0.030695979,-0.08170322
997,9.969999999999832,-0.33373898,-0.40929216,-0.8586477,0.13225232,-0.019242255,-0.0580322
998,9.979999999999832,-0.33373898,-0.40929216,-0.8586477,0.11133019,-0.015577064,-0.041080687
999,9.989999999999831,-0.26922303,-0.43862313,-0.85663533,0.09285152,-0.0071776668,-0.03756821
1000,9.999999999999831,-0.26922303,-0.43862313,-0.85663533,0.09285152,-0.0071776668,-0.03756821
