id,timestamp,acc_x,acc_y,acc_z,gyro_x,gyro_y,gyro_z
0,0,0.65144044,-0.10610375,1.2477558,0.22296582,-0.66507953,0.33765575
1,0.01,0.7458362,-0.31623796,1.1942769,0.398895,-0.6432411,0.39736784
2,0.02,0.7458362,-0.31623796,1.1942769,0.67363167,-0.7279987,0.44593164
3,0.03,0.80138826,-0.32477504,1.1500671,0.99021256,-0.9896017,0.47708577
4,0.04,0.9114556,-0.3420931,1.0212791,1.1872166,-1.1201742,0.49113566
5,0.05,0.9114556,-0.3420931,1.0212791,1.1872166,-1.1201742,0.49113566
6,0.060000000000000005,0.9624342,-0.33947104,0.98621607,1.065349,-0.84559023,0.21639901
7,0.07,1.0415852,-0.36319193,0.8859054,0.9613492,-0.68416905,-0.0013744468
8,0.08,1.0600009,-0.39008373,0.8128523,0.7629707,-0.474795,-0.2762638
9,0.09,1.0757945,-0.36819223,0.7791308,0.5549711,-0.36163223,-0.48609602
10,0.09999999999999999,1.0757945,-0.36819223,0.7791308,0.5549711,-0.36163223,-0.48609602
11,0.10999999999999999,1.1497012,-0.260503,0.7848629,0.19929479,-0.36193767,-0.81122905
12,0.11999999999999998,1.2025701,-0.24952675,0.75211704,0.1421789,-0.3904956,-0.8689558
13,0.12999999999999998,1.2494631,-0.20775603,0.7686424,0.12782355,-0.38698313,-0.9315695
14,0.13999999999999999,1.2158027,-0.22696446,0.77974063,0.124005646,-0.18967366,-1.1537718
15,0.15,1.2158027,-0.22696446,0.77974063,0.077579886,-0.12293663,-1.2571607
16,0.16,1.2151319,-0.19738956,0.8798074,0.077579886,-0.12293663,-1.2571607
17,0.17,1.1985456,-0.10585984,1.0256696,0.0580322,-0.11102476,-1.2964088
18,0.18000000000000002,1.2224493,-0.10299382,0.9727397,0.22067507,-0.089186326,-1.2771665
19,0.19000000000000003,1.1696415,-0.060918186,0.81529146,0.45005497,-0.08659015,-1.320996
20,0.20000000000000004,1.0746968,-0.05116152,0.70065063,0.68126744,-0.15225816,-1.3840679
21,0.21000000000000005,1.0746968,-0.05116152,0.70065063,0.74265945,-0.1994475,-1.3651311
22,0.22000000000000006,1.0048757,-0.058722936,0.61625546,0.5713117,-0.25503623,-1.1029172
23,0.23000000000000007,0.91676074,-0.1484233,0.465393,0.5713117,-0.25503623,-1.1029172
24,0.24000000000000007,0.91676074,-0.1484233,0.465393,0.38896844,-0.25228736,-0.91324353
25,0.25000000000000006,0.88127095,-0.11073817,0.5810095,-0.11728613,-0.25595254,-0.44058657
26,0.26000000000000006,0.9021258,-0.03292875,0.7888265,-0.30207285,-0.31047225,-0.2041817
27,0.2700000000000001,0.91743153,0.050917607,0.91663885,-0.30207285,-0.31047225,-0.2041817
28,0.2800000000000001,0.968837,0.09281029,0.96828824,-0.12629639,-0.5540548,0.21746802
29,0.2900000000000001,1.0124981,0.08323657,0.9459089,0.064599,-0.603993,0.31673363
30,0.3000000000000001,1.0424389,0.063113436,0.83974415,0.4364632,-0.59773165,0.3924809
31,0.3100000000000001,1.0301211,0.05646671,0.75931257,0.5580254,-0.6189592,0.37384954
32,0.3200000000000001,0.9875576,0.017013188,0.550337,0.48915035,-0.5352707,0.32528573
33,0.3300000000000001,0.95151895,-0.02262327,0.42081723,0.25778514,-0.3465133,0.25702155
34,0.34000000000000014,0.9218831,-0.06726002,0.38648596,-0.1647809,-0.06627888,0.0954477
35,0.35000000000000014,0.89053977,-0.011464084,0.5189937,-0.48243082,-0.058643065,-0.058337633
36,0.36000000000000015,0.89169836,0.12884897,0.80870575,-0.68325275,-0.16752979,-0.14477506
37,0.37000000000000016,0.89169836,0.12884897,0.80870575,-0.5849035,-0.35979962,-0.15195273
38,0.38000000000000017,0.945482,0.11762882,0.85322046,0.39263365,-1.0641272,-0.28725937
39,0.3900000000000002,0.9021258,0.06402813,0.7823017,0.8924741,-1.3174837,-0.38820487
40,0.4000000000000002,0.9021258,0.06402813,0.7823017,0.8924741,-1.3174837,-0.38820487
41,0.4100000000000002,0.6461353,-0.014574022,0.49124816,1.3402383,-1.4248432,-0.5661194
42,0.4200000000000002,0.5635695,-0.039758418,0.38008317,1.1992812,-1.20371,-0.6302602
43,0.4300000000000002,0.48844314,-0.063418336,0.29727346,0.9289733,-0.84788096,-0.7275405
44,0.4400000000000002,0.4492945,-0.08774903,0.22897679,0.9289733,-0.84788096,-0.7275405
45,0.45000000000000023,0.41691455,-0.121775396,0.17446141,0.3315471,-0.14523321,-0.8932377
46,0.46000000000000024,0.41691455,-0.121775396,0.17446141,-0.11911872,0.14004086,-0.8680395
47,0.47000000000000025,0.33087295,-0.040673107,0.24867305,-0.42928556,0.07727446,-0.7276932
48,0.48000000000000026,0.32129923,0.05793021,0.31898203,-0.58261275,-0.11484267,-0.4428773
49,0.49000000000000027,0.406792,0.07445556,0.43947688,-0.47784933,-0.37598756,-0.01786781
50,0.5000000000000002,0.5524103,0.07689473,0.45264837,-0.172264,-0.6421721,0.24816401
51,0.5100000000000002,0.71315134,0.08244383,0.35672814,0.26648995,-0.9309586,0.37690386
52,0.5200000000000002,0.71315134,0.08244383,0.35672814,0.26648995,-0.9309586,0.37690386
53,0.5300000000000002,0.71315134,0.08244383,0.35672814,0.26648995,-0.9309586,0.37690386
54,0.5400000000000003,0.6711367,0.016708292,0.16116793,0.62964934,-1.5748106,0.06505715
55,0.5500000000000003,0.4952118,0.021586625,0.20421924,0.54046303,-1.5438092,-0.01282817
56,0.5600000000000003,0.4952118,0.021586625,0.20421924,0.46379945,-1.4563028,-0.011148291
57,0.5700000000000003,0.46691746,0.0032928751,0.16854642,0.46777007,-1.1217014,0.1330159
58,0.5800000000000003,0.5133836,-0.017379062,0.16342416,0.46777007,-1.1217014,0.1330159
59,0.5900000000000003,0.57887524,-0.012378771,0.09384694,0.46593747,-0.9993755,0.28053987
60,0.6000000000000003,0.6504038,-0.02420873,0.06646729,0.40332377,-1.0277808,0.34025195
61,0.6100000000000003,0.70394355,-0.026769854,0.0714066,0.3266602,-1.0893254,0.33383787
62,0.6200000000000003,0.7274205,-0.013537374,0.055430062,0.28405234,-1.079857,0.27366763
63,0.6300000000000003,0.69241846,0.004756375,0.03731925,0.258396,-0.97158116,0.14462234
64,0.6400000000000003,0.69241846,0.004756375,0.03731925,0.27550024,-0.889878,0.02321288
65,0.6500000000000004,0.5939371,0.007866313,-0.015854584,0.27550024,-0.889878,0.02321288
66,0.6600000000000004,0.55234927,0.021098793,-0.054942228,0.2751948,-0.59956425,-0.07819075
67,0.6700000000000004,0.5139934,0.03298973,-0.0778704,0.24816401,-0.48243082,-0.015271631
68,0.6800000000000004,0.5368606,0.023903834,-0.065369666,0.2133447,-0.35430184,0.11484267
69,0.6900000000000004,0.58588785,0.061710916,-0.06780884,0.21044308,-0.38713586,0.22632557
70,0.7000000000000004,0.7108951,0.06274756,-0.1454963,0.21044308,-0.38713586,0.22632557
71,0.7100000000000004,0.78986317,0.043600105,-0.18098617,0.22907446,-0.50518554,0.34804046
72,0.7200000000000004,0.84047586,0.072016396,-0.23787974,0.25030205,-0.62858033,0.2275473
73,0.7300000000000004,0.8305972,0.083480485,-0.28050417,0.27229318,-0.68707067,0.12034045
74,0.7400000000000004,0.8013272,0.0570765,-0.26440567,0.31215215,-0.7151705,0.019089539
75,0.7500000000000004,0.7591906,0.035489876,-0.22897679,0.39446622,-0.6525568,-0.10170906
76,0.7600000000000005,0.7183346,0.03957548,-0.2420873,0.44073927,-0.53038377,-0.19120082
77,0.7700000000000005,0.6899183,0.033416584,-0.27300373,0.42317688,-0.42439863,-0.25793785
78,0.7800000000000005,0.6460133,0.028294332,-0.2675156,0.2941316,-0.3642284,-0.28099802
79,0.7900000000000005,0.58936363,0.06658925,-0.23105007,0.19181168,-0.3707952,-0.16050485
80,0.8000000000000005,0.606011,0.095493376,-0.20690231,0.1591304,-0.3743077,-0.0016798794
81,0.8100000000000005,0.7106512,0.137569,-0.2122075,0.17058411,-0.36682457,0.11346822
82,0.8200000000000005,0.7829725,0.11604336,-0.22043969,0.42195517,-0.33200526,0.24572055
83,0.8300000000000005,0.81779164,0.08073642,-0.21629311,0.550695,-0.29352075,0.17058411
84,0.8400000000000005,0.8465128,0.030611541,-0.23434295,0.64644814,-0.23579398,0.044898596
85,0.8500000000000005,0.8735266,-0.013720313,-0.2798334,0.64919704,-0.13836098,-0.124311075
86,0.8600000000000005,0.8479763,-0.032440916,-0.29837108,0.5161811,0.028863383,-0.43417248
87,0.8700000000000006,0.7685814,-0.018659625,-0.2579419,0.41493022,0.08277224,-0.57925296
88,0.8800000000000006,0.7195542,-0.013049542,-0.23416002,0.34238997,0.16035213,-0.6302602
89,0.8900000000000006,0.6905281,-0.006829667,-0.2125734,0.29840767,0.28710666,-0.6114761
90,0.9000000000000006,0.6758931,0.03603869,-0.18836464,0.29840767,0.28710666,-0.6114761
91,0.9100000000000006,0.6826008,0.15305771,-0.19269417,0.22785273,0.39935315,-0.41172317
92,0.9200000000000006,0.7369942,0.22007383,-0.21830542,0.2087632,0.39080104,-0.2773328
93,0.9300000000000006,0.8009004,0.24574605,-0.23306239,0.23701571,0.31429017,-0.20463985
94,0.9400000000000006,0.7950464,0.25007555,-0.23952618,0.3051272,0.22434026,-0.2087632
95,0.9500000000000006,0.7901071,0.2537953,-0.28495565,0.39752057,0.1516473,-0.21151209
96,0.9600000000000006,0.7897412,0.26092985,-0.3473983,0.44058657,0.15683965,-0.24419338
97,0.9700000000000006,0.7738866,0.28410196,-0.38538834,0.45448375,0.13973543,-0.29061913
98,0.9800000000000006,0.73315257,0.27843088,-0.4056944,0.5355761,0.34025195,-0.3717115
99,0.9900000000000007,0.6895524,0.26056397,-0.42002448,0.5355761,0.34025195,-0.3717115
100,1.0000000000000007,0.6486354,0.28702894,-0.43929392,0.5355761,0.34025195,-0.3717115
101,1.0100000000000007,0.6486354,0.28702894,-0.43929392,0.5355761,0.34025195,-0.3717115
102,1.0200000000000007,0.9352985,0.35508168,-0.73601854,0.25060746,0.5198463,-0.6995934
103,1.0300000000000007,0.8426101,0.45423386,-0.63534194,0.04718934,0.3119994,-0.8382598
104,1.0400000000000007,0.8218162,0.44270876,-0.5505809,0.04734206,0.2706133,-0.78542
105,1.0500000000000007,0.922005,0.39947453,-0.5471051,0.22357668,0.38163805,-0.7076874
106,1.0600000000000007,1.021645,0.39740124,-0.61625546,0.44104472,0.50747633,-0.78038037
107,1.0700000000000007,1.0968933,0.3986208,-0.6881499,0.56505036,0.5861252,-0.9315695
108,1.0800000000000007,1.0968933,0.3986208,-0.6881499,0.56505036,0.5861252,-0.9315695
109,1.0900000000000007,1.118358,0.39392543,-0.68540585,0.64599,0.7266242,-1.1285735
110,1.1000000000000008,1.0647572,0.28416294,-0.6193044,0.783282,1.4517213,-1.6727017
111,1.1100000000000008,0.995302,0.2643447,-0.5827169,0.7892379,1.6957619,-1.7458528
112,1.1200000000000008,0.9202976,0.25653934,-0.5887539,0.6618725,2.1015291,-1.6577356
113,1.1300000000000008,0.8382807,0.3170307,-0.56253284,0.45478916,2.1103866,-1.4486669
114,1.1400000000000008,0.7292499,0.3876446,-0.51722527,0.20555615,1.8848248,-1.0456486
115,1.1500000000000008,0.63619566,0.34910575,-0.20531686,-0.03680463,1.1180362,0.52198434
116,1.1600000000000008,0.63619566,0.34910575,-0.20531686,-0.03680463,1.1180362,0.52198434
117,1.1700000000000008,0.63619566,0.34910575,-0.20531686,-0.03680463,1.1180362,0.52198434
118,1.1800000000000008,0.63619566,0.34910575,-0.20531686,-0.03680463,1.1180362,0.52198434
119,1.1900000000000008,0.63619566,0.34910575,-0.20531686,-0.03680463,1.1180362,0.52198434
120,1.2000000000000008,0.63619566,0.34910575,-0.20531686,-0.03680463,1.1180362,0.52198434
121,1.2100000000000009,0.63619566,0.34910575,-0.20531686,-0.03680463,1.1180362,0.52198434
122,1.2200000000000009,0.63619566,0.34910575,-0.20531686,-0.03680463,1.1180362,0.52198434
123,1.2300000000000009,0.63619566,0.34910575,-0.20531686,-0.03680463,1.1180362,0.52198434
124,1.2400000000000009,1.4796594,0.2775772,-0.12970269,-0.5007568,1.4636332,-0.59941155
125,1.2500000000000009,1.1768979,0.28093103,-0.029940773,-0.5183192,0.7698429,-0.03390302
126,1.260000000000001,1.1104306,0.190255,0.24141651,-0.49495357,0.57940567,0.61300325
127,1.270000000000001,1.2419018,0.18123008,0.21409786,-0.41248676,0.5390886,1.0173961
128,1.280000000000001,1.5388703,0.15336262,0.069760166,-0.22785273,0.4720461,1.1583532
129,1.290000000000001,1.5388703,0.15336262,0.069760166,-0.059101213,0.48151454,0.97585726
130,1.300000000000001,1.472159,0.09579827,0.046405144,0.07574729,0.48655418,0.5534439
131,1.310000000000001,1.0663427,0.12842213,0.053173836,0.014813482,0.47723848,0.29611692
132,1.320000000000001,0.96895903,0.17903483,0.06372323,-0.40591997,0.45188758,0.62995476
133,1.330000000000001,0.954141,0.19909698,0.11842154,-0.49006665,0.36987892,0.8732319
134,1.340000000000001,0.97463006,0.23879443,0.14445965,-0.41706824,0.43295074,1.0998629
135,1.350000000000001,0.97463006,0.23879443,0.14445965,-0.41706824,0.43295074,1.0998629
136,1.360000000000001,1.132993,0.2987979,0.011768979,0.061086524,0.8202393,0.94714653
137,1.370000000000001,1.1651899,0.28501663,-0.081773065,0.22678372,0.9283624,0.74464476
138,1.380000000000001,1.1407373,0.25769794,-0.20501198,0.38866302,1.0581713,0.34376442
139,1.390000000000001,1.0384142,0.22995245,-0.2894681,0.43967026,1.0603093,-0.009468411
140,1.400000000000001,0.96694666,0.20208496,-0.3434347,0.4476115,0.9978484,-0.22693644
141,1.410000000000001,0.863526,0.14958191,-0.40234053,0.41080686,0.8520043,-0.4466952
142,1.420000000000001,0.77132547,0.0734799,-0.39599872,0.3391829,0.6805039,-0.56016344
143,1.430000000000001,0.623634,-0.013476395,-0.3427639,0.14569137,0.5120578,-0.5546656
144,1.440000000000001,0.4686859,0.013598354,-0.26379588,-0.18188512,0.40530908,-0.32375857
145,1.450000000000001,0.40227956,0.08451713,-0.19854817,-0.44608435,0.26389378,0.011453724
146,1.460000000000001,0.5008219,0.07915096,-0.10153031,-0.6702719,0.19364429,0.50579643
147,1.470000000000001,0.5558251,0.050307814,-0.07817529,-0.7228063,0.2938262,0.768163
148,1.480000000000001,0.5558251,0.050307814,-0.07817529,-0.6246097,0.3633121,1.0534371
149,1.490000000000001,0.5558251,0.050307814,-0.07817529,-0.6246097,0.3633121,1.0534371
150,1.500000000000001,1.3634942,-0.04085604,0.024086772,-0.30818152,0.7820602,0.6598872
151,1.5100000000000011,1.3634942,-0.04085604,0.024086772,-0.30818152,0.7820602,0.6598872
152,1.5200000000000011,1.6107037,-0.011525063,0.045734376,-0.9682214,0.5306892,-0.5103779
153,1.5300000000000011,1.6107037,-0.011525063,0.045734376,-1.338253,0.24602598,-0.7476991
154,1.5400000000000011,1.2903192,0.11317733,0.4844185,-1.5425875,-0.16646078,-0.6542367
155,1.5500000000000012,1.2903192,0.11317733,0.4844185,-1.5425875,-0.16646078,-0.6542367
156,1.5600000000000012,1.0986006,0.017683959,0.5582643,-1.022283,-0.635758,0.00061086525
157,1.5700000000000012,0.9936555,-0.09768862,0.4952728,-0.36468655,-1.0143417,0.3231477
158,1.5800000000000012,0.8845028,-0.16696097,0.38587618,0.006414085,-1.1861476,0.5525276
159,1.5900000000000012,0.8845028,-0.16696097,0.38587618,0.006414085,-1.1861476,0.5525276
160,1.6000000000000012,0.71034634,-0.2798334,0.3187381,0.06001751,-1.0644327,0.87781334
161,1.6100000000000012,0.7306524,-0.27800402,0.38374192,-0.54168475,-0.441961,0.9239337
162,1.6200000000000012,0.7306524,-0.27800402,0.38374192,-0.54168475,-0.441961,0.9239337
163,1.6300000000000012,0.638147,-0.12415359,0.6737588,-1.162782,-0.6462954,0.7716755
164,1.6400000000000012,0.6111332,-0.13689823,0.85108626,-1.2373075,-0.8237518,0.7707592
165,1.6500000000000012,0.5835096,-0.19708468,0.96895903,-1.1473577,-0.8903361,0.7703011
166,1.6600000000000013,0.5388729,-0.32715324,1.0807338,-0.9766208,-0.6122397,0.7507534
167,1.6700000000000013,0.4486847,-0.3969134,1.2210468,-0.9086621,0.07666359,0.78984874
168,1.6800000000000013,0.37124115,-0.37764397,1.3033687,-0.93309665,0.59788436,0.9282097
169,1.6900000000000013,0.4552095,-0.4564291,1.1906183,-1.1213958,1.0511464,1.1209377
170,1.7000000000000013,0.6035718,-0.45057508,1.0668305,-1.5377005,1.3819299,1.2844969
171,1.7100000000000013,0.7972416,-0.28812656,1.0501832,-2.3283129,1.485777,1.4454598
172,1.7200000000000013,1.3059908,-0.050856624,1.5645425,-3.1035008,1.2848023,1.6555976
173,1.7300000000000013,1.6837567,-0.010732334,1.7900435,-3.2991304,0.5357288,1.9387336
174,1.7400000000000013,1.6837567,-0.010732334,1.7900435,-2.8486173,0.106137834,1.7269161
175,1.7500000000000013,2.0612788,0.25983223,1.8474858,-1.9453003,-0.18600847,0.97158116
176,1.7600000000000013,1.9810301,0.3755097,1.7633957,-0.82527894,-0.06612616,-0.28313604
177,1.7700000000000014,1.7510778,0.37081432,1.6524745,-0.03680463,0.18860464,-1.3814718
178,1.7800000000000014,1.7510778,0.37081432,1.6524745,0.4896085,0.4005749,-2.225535
179,1.7900000000000014,1.4829525,0.23172083,1.4965508,0.74388117,0.63697976,-2.6580274
180,1.8000000000000014,0.8451103,-0.15458219,1.1084794,0.7519751,0.72402805,-2.474768
181,1.8100000000000014,0.7097365,-0.37252176,0.88029534,0.6241516,0.49770245,-1.4703526
182,1.8200000000000014,0.7626055,-0.44770905,0.75211704,0.4373795,0.19043724,-0.56123245
183,1.8300000000000014,0.9232856,-0.43856218,0.71900535,0.18448131,-0.25778514,0.30390546
184,1.8400000000000014,1.1556772,-0.38063195,0.8395002,-0.13332134,-0.82604253,1.1435398
185,1.8500000000000014,1.3781292,-0.31123766,0.9285908,-0.33353242,-1.0549643,1.5212072
186,1.8600000000000014,1.6474742,-0.21031716,1.0373167,-0.36361754,-0.99067074,1.368949
187,1.8700000000000014,1.7988853,-0.1653755,1.083112,-0.23136522,-0.61621034,0.6808093
188,1.8800000000000014,1.8074836,-0.1425693,1.0356092,-0.052839845,-0.32574388,-0.06307184
189,1.8900000000000015,1.6639386,-0.10348164,1.0371337,0.10980303,-0.064599,-0.7703011
190,1.9000000000000015,1.1947647,-0.09409086,1.2062899,0.26328292,0.18799378,-1.3808609
191,1.9100000000000015,1.0346335,-0.13762999,1.1598847,0.4034765,0.35201108,-1.6656768
192,1.9200000000000015,0.93767667,-0.1539724,1.1113453,0.6713409,0.09972375,-1.7008016
193,1.9300000000000015,0.93767667,-0.1539724,1.1113453,0.6713409,0.09972375,-1.7008016
194,1.9400000000000015,0.83139,-0.14897211,1.062928,0.5885687,-0.46853364,-1.047023
195,1.9500000000000015,0.7701059,-0.16799761,1.0138396,0.5885687,-0.46853364,-1.047023
196,1.9600000000000015,0.8064495,-0.18299848,0.9934116,0.5885687,-0.46853364,-1.047023
197,1.9700000000000015,0.7752892,-0.18153499,1.0418291,0.5522222,-0.7304421,-0.5580254
198,1.9800000000000015,0.8253531,-0.13775194,0.92877364,0.38820487,-1.055117,0.029474247
199,1.9900000000000015,0.78809476,-0.06945527,1.006949,0.23747386,-0.8170323,-0.06414085
200,2.0000000000000013,0.78809476,-0.06945527,1.006949,0.23747386,-0.8170323,-0.06414085
201,2.010000000000001,0.7751062,-0.10122541,1.0072539,0.31474832,-0.5093089,-0.24969117
202,2.020000000000001,0.6788201,-0.15830192,0.5771678,0.19822577,0.36926803,-0.7641924
203,2.0300000000000007,0.6788201,-0.15830192,0.5771678,0.19822577,0.36926803,-0.7641924
204,2.0400000000000005,0.53222615,-0.09585925,0.7211396,-0.30711251,0.65011334,-1.0180069
205,2.0500000000000003,0.50191957,-0.066223375,0.9124313,-0.38453966,0.42302418,-0.6713409
206,2.06,0.6171092,-0.120007,0.9308469,0.05955936,-0.14401148,0.17547104
207,2.07,0.75205606,-0.16311927,0.9122484,0.41034874,-0.6782131,0.5652031
208,2.0799999999999996,0.9581047,-0.13226382,0.7063217,0.41034874,-0.6782131,0.5652031
209,2.0899999999999994,0.9581047,-0.13226382,0.7063217,0.55924714,-1.0772609,0.7770206
210,2.099999999999999,1.0172545,0.03439225,0.5898515,0.5395467,-1.6869044,0.5358815
211,2.109999999999999,0.9590193,0.044331856,0.6086331,0.5652031,-1.534799,0.1525636
212,2.1199999999999988,0.8966987,-0.0024391667,0.5832657,0.6609562,-1.1346822,-0.40515637
213,2.1299999999999986,0.87017274,-0.04439283,0.47825962,0.7012733,-0.80680025,-0.8222246
214,2.1399999999999983,0.8073032,-0.08128523,0.3474593,0.6264423,-0.5355761,-1.1394165
215,2.149999999999998,0.7052851,-0.14897211,0.25861263,0.39904773,-0.2687807,-1.3584116
216,2.159999999999998,0.6182678,-0.19873111,0.26178357,0.15943582,-0.16294831,-1.3860532
217,2.1699999999999977,0.47484478,-0.18818171,0.3211163,-0.1441642,-0.3475823,-1.1695015
218,2.1799999999999975,0.4045358,-0.105920814,0.42709813,-0.35628715,-0.6618725,-0.7377725
219,2.1899999999999973,0.4045358,-0.105920814,0.42709813,-0.35628715,-0.6618725,-0.7377725
220,2.199999999999997,0.6513185,0.08250481,0.4978949,-0.3287982,-1.4030048,0.56230146
221,2.209999999999997,0.7627884,0.094456725,0.50716376,-0.03604105,-1.5486962,0.744492
222,2.2199999999999966,0.7894363,0.120921694,0.5066149,0.3222314,-1.5757269,0.6907359
223,2.2299999999999964,0.74004316,0.16879034,0.49722412,0.68600166,-1.4040737,0.4622723
224,2.239999999999996,0.7260789,0.1343371,0.403926,0.88254756,-1.0616838,0.14523321
225,2.249999999999996,0.74540937,0.046283185,0.2736745,0.9069822,-0.7301367,-0.27198774
226,2.259999999999996,0.70924866,-0.014574022,0.21946402,0.6221663,-0.3203988,-0.9213375
227,2.2699999999999956,0.5399705,-0.07378479,0.16976601,0.6221663,-0.3203988,-0.9213375
228,2.2799999999999954,0.5399705,-0.07378479,0.16976601,0.35613444,-0.17088956,-1.0642799
229,2.289999999999995,0.3284948,0.1686074,0.31428665,0.005497787,-0.17195857,-1.0273226
230,2.299999999999995,0.39593774,0.19391376,0.32879966,0.12721269,-0.8249735,-0.05009095
231,2.3099999999999947,0.5408852,0.13220283,0.2505634,0.4728097,-1.0102184,0.37980548
232,2.3199999999999945,0.60491335,0.09683492,0.20732918,0.65500027,-1.0832168,0.5317582
233,2.3299999999999943,0.60491335,0.09683492,0.20732918,0.65500027,-1.0832168,0.5317582
234,2.339999999999994,0.75547093,0.025184397,-0.092932254,0.8669705,-1.5819882,0.7516697
235,2.349999999999994,0.74120176,0.0123177925,-0.12311694,0.55680364,-1.6888897,0.7244862
236,2.3599999999999937,0.70534605,0.004085604,-0.012378771,0.21044308,-1.7033978,0.68798697
237,2.3699999999999934,0.70534605,0.004085604,-0.012378771,0.07849618,-1.5163202,0.61178154
238,2.3799999999999932,0.6390617,0.071772486,0.06860156,0.11148291,-1.2757921,0.52412236
239,2.389999999999993,0.6390617,0.071772486,0.06860156,0.11148291,-1.2757921,0.52412236
240,2.399999999999993,0.65637976,0.10714039,-0.030123709,0.32834008,-0.77931136,0.27763826
241,2.4099999999999926,0.6589409,0.11909231,-0.096042186,0.3830125,-0.6204864,0.14278975
242,2.4199999999999924,0.6295489,0.12561709,-0.1387886,0.41493022,-0.5410739,0.04352415
243,2.429999999999992,0.5957664,0.08738314,-0.14598413,0.41493022,-0.5410739,0.04352415
244,2.439999999999992,0.5957664,0.08738314,-0.14598413,0.41493022,-0.5410739,0.04352415
245,2.4499999999999917,0.5936932,-0.06421106,-0.14513041,0.5653558,-0.37415496,0.06582073
246,2.4599999999999915,0.5725944,-0.06591848,-0.17549805,0.45081854,-0.3368922,0.13225232
247,2.4699999999999913,0.5621669,0.0190255,-0.25903952,0.19837849,-0.2967278,0.28328875
248,2.479999999999991,0.6354029,0.058174126,-0.19781642,-0.001985312,-0.28924468,0.41416663
249,2.489999999999991,0.6354029,0.058174126,-0.19781642,-0.098043874,-0.3080288,0.50656
250,2.4999999999999907,0.79425365,0.07378479,-0.20178007,-0.040927973,-0.3979787,0.50854534
251,2.5099999999999905,0.8319997,0.0600035,-0.1642169,0.05879578,-0.5500842,0.3998113
252,2.5199999999999902,0.85273266,0.046283185,-0.0834195,0.18936823,-0.710589,0.27397305
253,2.52999999999999,0.8750511,0.015305771,-0.05213719,0.3211624,-0.7367035,0.18555032
254,2.53999999999999,0.89084464,-0.035733793,-0.045978293,0.3211624,-0.7367035,0.18555032
255,2.5499999999999896,0.8729168,0.005610083,-0.18068127,0.52564955,-0.49678615,-0.11010846
256,2.5599999999999894,0.8118157,0.08427321,-0.30654228,0.43768495,-0.3559817,-0.32162055
257,2.569999999999989,0.7152246,0.10653061,-0.31507936,0.29565877,-0.26923886,-0.45875978
258,2.579999999999989,0.6161335,0.14019111,-0.2658082,0.17012598,-0.11881329,-0.5519168
259,2.5899999999999888,0.56753314,0.17616881,-0.20336552,0.1777618,0.010537425,-0.54626626
260,2.5999999999999885,0.5527152,0.12409261,-0.1536675,0.3323107,0.20708331,-0.4176791
261,2.6099999999999883,0.61717016,0.08018761,-0.13982524,0.5010622,0.4353942,-0.26221392
262,2.619999999999988,0.705468,0.07518731,-0.19196242,0.6385069,0.6232353,-0.12018774
263,2.629999999999988,0.7882167,0.07396773,-0.2783699,0.6966918,0.74097955,0.018020526
264,2.6399999999999877,0.7882167,0.07396773,-0.2783699,0.64461553,0.77625704,0.079870634
265,2.6499999999999875,0.94993347,0.16482669,-0.3743511,0.5129741,0.72524977,0.034055736
266,2.6599999999999873,0.91932195,0.24080674,-0.32879966,0.41996986,0.44226643,-0.22357668
267,2.669999999999987,0.91932195,0.24080674,-0.32879966,0.41996986,0.44226643,-0.22357668
268,2.679999999999987,0.86633104,0.28971204,-0.32605562,0.6078109,0.31398472,-0.33322698
269,2.6899999999999866,0.7315061,0.2382456,-0.31361586,0.8445212,0.3043636,-0.3866777
270,2.6999999999999864,0.6152188,0.1516552,-0.333678,1.1473577,0.45265114,-0.39645153
271,2.709999999999986,0.6152188,0.1516552,-0.333678,1.3807082,0.8512407,-0.20204368
272,2.719999999999986,0.5655818,0.12214127,-0.3231286,1.4688255,1.4676038,0.27183503
273,2.7299999999999858,0.4953338,0.08287069,-0.29361472,1.4688255,1.4676038,0.27183503
274,2.7399999999999856,0.5549714,0.0042075627,-0.31154257,1.5283848,1.7935003,0.75411314
275,2.7499999999999853,1.0336579,-0.065369666,-0.5719236,1.4069754,1.9978348,1.5526668
276,2.759999999999985,1.3197112,0.045063604,-0.73028654,1.0351112,1.8548924,1.4382823
277,2.769999999999985,1.54259,0.272272,-0.8253531,0.35155296,1.2554808,0.9593639
278,2.7799999999999847,1.6714389,0.31123766,-0.76656914,0.014049901,1.0341948,0.5421429
279,2.7899999999999845,1.890537,0.30751795,-0.5411291,0.003970624,0.8717047,-0.25244007
280,2.7999999999999843,1.8962692,0.30288354,-0.18336436,0.4363105,0.8390234,-1.0202976
281,2.809999999999984,1.8889517,0.2274523,0.012927583,1.2304354,1.0345002,-1.7537941
282,2.819999999999984,1.8249235,0.028294332,0.04981998,2.4440718,1.43141,-2.634662
283,2.8299999999999836,1.6737561,-0.10799411,-0.056771606,2.4440718,1.43141,-2.634662
284,2.8399999999999834,1.3909957,-0.23726994,-0.3211163,3.79836,1.9339994,-3.5995235
285,2.849999999999983,1.1373224,-0.2932488,-0.56228894,3.7546833,1.813048,-3.5283577
286,2.859999999999983,0.90737003,-0.25562465,-0.84864706,3.1488576,1.32909,-2.984535
287,2.869999999999983,0.7112,-0.13031249,-0.8979792,2.122146,0.5476407,-2.1534526
288,2.8799999999999826,0.64162284,-0.08506594,-0.79150957,2.122146,0.5476407,-2.1534526
289,2.8899999999999824,0.7338233,-0.051466417,-0.52442086,0.5215262,-0.643852,-0.46914452
290,2.899999999999982,0.8315119,-0.014269125,-0.36898494,0.3107777,-0.73731434,-0.12889257
291,2.909999999999982,1.0087783,0.0582351,-0.14878917,0.65408397,-0.004276057,-0.29000828
292,2.9199999999999817,1.0087783,0.0582351,-0.14878917,0.90102625,0.56505036,-0.9392053
293,2.9299999999999815,1.2884898,0.1475086,-0.19043794,0.90102625,0.56505036,-0.9392053
294,2.9399999999999813,1.2640982,0.23025733,-0.33690992,0.6209445,1.2525792,-1.9321668
295,2.949999999999981,1.1645192,0.21556135,-0.46642965,0.6209445,1.2525792,-1.9321668
296,2.959999999999981,0.93072504,0.1255561,-0.5763141,0.080634214,1.4361442,-1.7308867
297,2.9699999999999807,0.9091994,0.11848252,-0.61296254,-0.2060143,1.2475395,-1.0590876
298,2.9799999999999804,1.0196327,0.14689882,-0.61223084,-0.5510005,0.926988,-0.09712757
299,2.9899999999999802,1.1373835,0.14482552,-0.58570486,-0.81397796,0.73838335,0.49174652
300,2.99999999999998,1.3095276,0.22708642,-0.34813008,-1.4127786,0.34040466,1.3764321
301,3.00999999999998,1.4561826,0.32361645,-0.15196009,-1.8668042,0.05497787,1.6953038
302,3.0199999999999796,1.5412484,0.3621553,-0.005366167,-2.0810652,0.094989546,1.6216946
303,3.0299999999999794,1.545395,0.37544873,0.1621436,-2.021353,0.3631594,1.1168144
304,3.039999999999979,1.4670368,0.38837633,0.24013597,-1.7114917,0.63514715,0.5525276
305,3.049999999999979,1.3392245,0.37770495,0.2122075,-1.248914,0.95447695,0.012217305
306,3.0599999999999787,1.1483598,0.27093044,0.10195717,-0.6412558,1.3773484,-0.5522222
307,3.0699999999999785,0.9839599,0.14574021,-0.005366167,-0.29886582,1.6059648,-0.9558514
308,3.0799999999999783,0.7096146,-0.01597654,-0.06658925,-0.31398472,1.593442,-1.0684034
309,3.089999999999978,0.46533203,-0.10756725,-0.047929626,-0.5873469,1.452943,-0.86651236
310,3.099999999999978,0.25678328,-0.008354146,0.13104422,-1.6082555,0.79473567,0.7163922
311,3.1099999999999777,0.25678328,-0.008354146,0.13104422,-1.6082555,0.79473567,0.7163922
312,3.1199999999999775,0.47777176,0.101408355,0.19281614,-1.6739235,0.09101892,2.1551325
313,3.1299999999999772,0.8191332,0.19275515,0.22336671,-1.6739235,0.09101892,2.1551325
314,3.139999999999977,1.0521955,0.2084268,0.25281963,-0.7305948,0.104610674,1.5150986
315,3.149999999999977,1.0031683,0.22653762,0.22336671,-0.22907446,0.30176744,0.75411314
316,3.1599999999999766,0.84462243,0.20976834,0.14738666,-0.053145275,0.6049093,0.20234911
317,3.1699999999999764,0.84462243,0.20976834,0.14738666,-0.053145275,0.6049093,0.20234911
318,3.179999999999976,0.69040614,0.16116793,0.045612417,-0.094531395,0.79809546,-0.07651087
319,3.189999999999976,0.51655453,0.17074168,0.023233064,-0.515723,0.8246681,-0.12950343
320,3.1999999999999758,0.5646671,0.17501022,0.039270584,-0.61727935,0.70707655,0.004886922
321,3.2099999999999755,0.8182185,0.15238695,0.094212815,-0.6374379,0.6436992,0.16905695
322,3.2199999999999753,0.9784107,0.15860681,0.054820273,-0.4989242,0.6872234,0.11102476
323,3.229999999999975,1.0410364,0.14952092,-0.009207855,-0.35185838,0.6609562,-0.084910266
324,3.239999999999975,0.99078953,0.12086072,-0.040551145,-0.20173825,0.45891252,-0.36086863
325,3.2499999999999747,0.88242954,0.056344748,-0.036465544,-0.14676037,0.3932445,-0.453262
326,3.2599999999999745,0.86529446,0.0030489585,-0.048661377,-0.15409076,0.4016439,-0.44837508
327,3.2699999999999743,0.86273324,-0.06628435,-0.08976133,-0.23671028,0.4427246,-0.41615194
328,3.279999999999974,0.85840374,-0.105250046,-0.07323598,-0.37491855,0.5554292,-0.38438696
329,3.289999999999974,0.8865761,-0.119946025,-0.0060369377,-0.72189003,0.8378017,-0.2947425
330,3.2999999999999736,0.9624342,-0.020062147,0.004756375,-1.2104294,0.904386,-0.20143281
331,3.3099999999999734,0.9624342,-0.020062147,0.004756375,-1.5651895,0.79000145,-0.13958271
332,3.319999999999973,0.95493376,0.0036587503,0.10915271,-1.7482964,0.41431937,0.036957346
333,3.329999999999973,0.8750511,-0.18507177,0.3664848,-1.5349517,-0.6560693,0.75716746
334,3.3399999999999728,0.8750511,-0.18507177,0.3664848,-1.5349517,-0.6560693,0.75716746
335,3.3499999999999726,0.76266646,-0.21263437,0.50606614,-1.5349517,-0.6560693,0.75716746
336,3.3599999999999723,0.6571725,-0.3012371,0.579668,-1.197754,-1.1192578,1.3080152
337,3.369999999999972,0.7379699,-0.40703595,0.55984974,-0.95432425,-0.8888089,2.520888
338,3.379999999999972,0.79559517,-0.47386914,0.5860708,-1.1473577,-0.68859786,2.589916
339,3.3899999999999717,0.8482812,-0.47466183,0.8322436,-1.1473577,-0.68859786,2.589916
340,3.3999999999999715,0.8482812,-0.47466183,0.8322436,-1.3616186,-0.47555858,2.2953262
341,3.4099999999999713,0.8482812,-0.47466183,0.8322436,-1.3616186,-0.47555858,2.2953262
342,3.419999999999971,1.0533541,-0.5886929,1.3581281,-1.2765557,-0.5674938,1.706452
343,3.429999999999971,0.9884723,-0.7215055,1.545212,-1.3205379,-0.41920626,1.4854716
344,3.4399999999999706,0.7802894,-0.89364964,1.6047277,-1.6308575,0.37843102,1.5560265
345,3.4499999999999704,0.7313841,-0.8872469,1.5656402,-1.9152153,0.7443393,1.7203492
346,3.45999999999997,0.82486516,-0.76815456,1.6031423,-2.6064093,1.1725558,2.0677788
347,3.46999999999997,1.0876244,-0.5897905,1.8389488,-3.1308372,1.4683673,2.1146626
348,3.47999999999997,1.4188023,-0.2608079,2.1164649,-2.9561296,1.2841915,0.75487673
349,3.4899999999999696,1.8156546,0.2941635,1.7768719,-2.9561296,1.2841915,0.75487673
350,3.4999999999999694,1.8156546,0.2941635,1.7768719,-2.629164,0.6569856,-0.4810564
351,3.509999999999969,1.7133317,0.7036996,1.7245518,-2.629164,0.6569856,-0.4810564
352,3.519999999999969,1.5576519,0.92865175,1.8064469,-2.4947736,-0.13103059,-2.3107505
353,3.5299999999999687,1.2880019,1.0546347,2.0839021,-1.8909334,-0.3043636,-3.100141
354,3.5399999999999685,1.0468904,0.9386523,2.3845294,-1.2165382,-0.42760566,-3.477045
355,3.5499999999999683,0.35965514,-0.19568215,2.1245751,1.7690657,-0.4746423,-3.4568865
356,3.559999999999968,0.22623271,-0.46356362,1.8273017,2.2957842,-0.38056904,-3.1688635
357,3.569999999999968,0.085980624,-0.7715694,1.3501397,2.758973,-0.24480425,-2.5486825
358,3.5799999999999677,0.16964404,-1.0177423,0.280992,2.6305385,-0.05787948,-1.1665999
359,3.5899999999999674,0.5543006,-0.875295,0.33471465,1.9007072,-0.15836681,-0.025809057
360,3.5999999999999672,0.960239,-0.69266236,0.5846073,-0.43569964,-0.6293439,1.6901114
361,3.609999999999967,1.3093448,-0.48252818,0.84181744,-0.9857838,-0.549626,1.8025106
362,3.619999999999967,1.6207652,-0.27763817,1.0680501,-1.1916454,-0.32559118,1.5213599
363,3.6299999999999666,1.8669382,-0.07683375,1.3423954,-1.0506883,-0.014660766,0.6951646
364,3.6399999999999664,1.9417596,0.046588086,1.5380166,-0.5830709,0.25381452,-0.4370741
365,3.649999999999966,1.8155328,-0.061345045,1.4065455,0.0421497,0.29642236,-1.4083499
366,3.659999999999966,1.6767441,-0.19891405,1.1802518,0.45952338,0.40454552,-1.890628
367,3.6699999999999657,1.5058806,-0.27239394,0.9488969,0.6940956,0.3371976,-2.1358902
368,3.6799999999999655,1.1289684,-0.28440684,0.6724173,0.60032785,0.18432859,-2.0270035
369,3.6899999999999653,0.9634099,-0.17129049,0.84090275,0.010995574,-0.6200282,-1.1746938
370,3.699999999999965,0.91651684,-0.15567982,0.9362132,0.010995574,-0.6200282,-1.1746938
371,3.709999999999965,0.91651684,-0.15567982,0.9362132,-0.028405234,-0.74189585,-0.14202617
372,3.7199999999999647,1.0295113,-0.02201348,1.0653061,0.07437284,-0.58108556,0.07941248
373,3.7299999999999645,1.1067109,0.02786748,1.1181141,0.22479841,-0.39813143,0.10415252
374,3.7399999999999642,1.1067109,0.02786748,1.1181141,0.22479841,-0.39813143,0.10415252
375,3.749999999999964,1.2022043,0.040124293,1.1130528,0.22479841,-0.39813143,0.10415252
376,3.759999999999964,1.2685496,-0.0027440626,0.8370001,0.43218717,0.13041973,-0.6577492
377,3.7699999999999636,1.2685496,-0.0027440626,0.8370001,0.43218717,0.13041973,-0.6577492
378,3.7799999999999634,0.92596865,-0.047380816,0.6543065,-0.20463985,0.087659165,-1.2487613
379,3.789999999999963,0.69607717,-0.033111688,0.8272434,-0.3933972,-0.069791354,-1.2247849
380,3.799999999999963,0.48947978,-0.07238227,0.84321994,-0.4268421,-0.17669277,-0.82695884
381,3.8099999999999627,0.46697846,-0.14720371,0.79858315,-0.31520647,-0.17027868,-0.22693644
382,3.8199999999999625,0.5336287,-0.24306297,0.72193235,-0.25793785,-0.14477506,0.20647246
383,3.8299999999999623,0.62967086,-0.21379296,0.8492569,-0.41706824,-0.3098614,0.59635717
384,3.839999999999962,0.6748565,-0.101408355,0.99207014,-0.4886922,-0.46517387,0.6956228
385,3.849999999999962,0.81419384,0.071162686,1.047866,-0.4793765,-0.9602802,1.0146471
386,3.8599999999999617,1.0573177,0.14610608,1.0114005,-0.19379699,-1.2368494,0.93431836
387,3.8699999999999615,1.1106136,0.1765347,0.9784107,0.3043636,-1.3405437,0.5122105
388,3.8799999999999613,0.9460308,0.09018819,0.9617634,0.3043636,-1.3405437,0.5122105
389,3.889999999999961,0.9460308,0.09018819,0.9617634,1.4437801,-0.61544675,-0.8770498
390,3.899999999999961,0.5542397,-0.16561942,0.5131397,1.0824533,-0.28206703,-0.90392786
391,3.9099999999999606,0.44362345,-0.30349332,0.2909926,1.0824533,-0.28206703,-0.90392786
392,3.9199999999999604,0.37557068,-0.3556915,0.25830775,-0.15958855,-0.014813482,-0.6424775
393,3.92999999999996,0.37611952,-0.17251006,0.38715672,-0.51923543,-0.23044892,-0.44440445
394,3.93999999999996,0.46453932,-0.0043905,0.51417637,-0.77091193,-0.7498371,0.11881329
395,3.9499999999999598,0.69674796,0.0036587503,0.5889978,-0.5137377,-1.0835222,0.35796702
396,3.9599999999999596,0.89188135,0.06347931,0.48838213,0.11789699,-1.4873042,0.32696563
397,3.9699999999999593,0.93956697,0.11012838,0.36544815,0.5758932,-1.7751744,0.11071932
398,3.979999999999959,0.88810056,0.08677336,0.3096522,0.8501717,-2.023033,-0.17638734
399,3.989999999999959,0.70558995,0.0033538544,0.33471465,0.97173387,-2.1471913,-0.49205196
400,3.9999999999999587,0.5429585,-0.042441502,0.3463007,1.0085385,-2.0190623,-0.6586655
401,4.009999999999959,0.3667897,-0.090371124,0.34123942,1.0345002,-1.6357445,-0.7787005
402,4.019999999999959,0.2394042,-0.091224834,0.3146525,0.9955576,-1.3845261,-0.73471814
403,4.0299999999999585,0.17909582,-0.057747275,0.22586684,0.8944594,-1.0896308,-0.59956425
404,4.039999999999958,0.25806385,-0.07085779,0.0898833,0.6872234,-0.7451029,-0.39064834
405,4.049999999999958,0.406792,-0.05213719,0.022440333,0.452193,-0.5279403,-0.28053987
406,4.059999999999958,0.49649242,0.005793021,-0.018293751,0.28313604,-0.54244834,-0.24724771
407,4.069999999999958,0.5889368,0.032684833,-0.018171793,0.13576481,-0.6800457,-0.22922719
408,4.079999999999957,0.56186205,0.065369666,0.042075627,0.10308351,-0.89751375,-0.21151209
409,4.089999999999957,0.56186205,0.065369666,0.042075627,0.10476339,-1.4086553,-0.049021937
410,4.099999999999957,0.4554534,0.054210484,0.11421398,0.13820826,-1.7145461,0.08200866
411,4.109999999999957,0.41599986,0.024757542,0.12634884,0.40133846,-2.1540635,0.48808134
412,4.119999999999957,0.41599986,0.024757542,0.12634884,0.40133846,-2.1540635,0.48808134
413,4.129999999999956,0.45087993,0.0086590415,0.06213777,0.44700065,-1.91323,0.54229563
414,4.139999999999956,0.51789606,0.021830542,-0.08781,-0.028710667,-0.8145888,0.2191479
415,4.149999999999956,0.64168376,-0.010671355,-0.100432694,-0.1965459,-0.5644395,0.111941054
416,4.159999999999956,0.6973577,0.044270877,0.055369087,-0.34681875,-0.3678936,-0.018325957
417,4.1699999999999555,0.74662894,0.112994395,0.10811607,-0.27656925,-0.39553526,-0.050701816
418,4.179999999999955,0.82669455,0.120738745,0.09470064,-0.02275473,-0.56001073,-0.0852157
419,4.189999999999955,0.8170599,0.1308613,0.07305304,0.2967278,-0.7948884,-0.16294831
420,4.199999999999955,0.79461956,0.11628727,-0.011768979,0.49754974,-0.915687,-0.19547687
421,4.209999999999955,0.7774844,0.08232188,-0.08707825,0.57436603,-0.9995282,-0.23869559
422,4.2199999999999545,0.68973535,0.061710916,-0.11988505,0.5477934,-1.0180069,-0.28160888
423,4.229999999999954,0.5478978,0.0024391667,-0.085004956,0.46517387,-0.8025242,-0.24266621
424,4.239999999999954,0.5087492,-0.024513626,-0.055795938,0.43157628,-0.6256787,-0.19333886
425,4.249999999999954,0.5347873,-0.054515377,-0.056161813,0.38545597,-0.27916542,-0.09483683
426,4.259999999999954,0.61082834,-0.060552314,-0.105493955,0.28878653,-0.0013744468,-0.040317107
427,4.269999999999953,0.7063827,-0.007622396,-0.18610841,0.069027774,0.03634648,-0.0062613687
428,4.279999999999953,0.74272627,0.049576063,-0.20104831,0.069027774,0.03634648,-0.0062613687
429,4.289999999999953,0.73626244,0.10079856,-0.1686074,0.18127427,-0.33001995,0.118202426
430,4.299999999999953,0.73626244,0.10079856,-0.1686074,0.18127427,-0.33001995,0.118202426
431,4.3099999999999525,0.72522527,0.063540295,-0.21263437,0.41279218,-0.5140431,0.15592335
432,4.319999999999952,0.72522527,0.063540295,-0.21263437,0.41279218,-0.5140431,0.15592335
433,4.329999999999952,0.7241276,0.04542948,-0.24117261,0.41706824,-0.38728857,0.08689558
434,4.339999999999952,0.71052927,0.071772486,-0.2119026,0.27137688,0.09605856,-0.14477506
435,4.349999999999952,0.71052927,0.071772486,-0.2119026,0.27168232,0.259465,-0.19807306
436,4.3599999999999515,0.71052927,0.071772486,-0.2119026,0.27168232,0.259465,-0.19807306
437,4.369999999999951,0.71052927,0.071772486,-0.2119026,0.42088616,0.44119743,-0.17455475
438,4.379999999999951,0.822304,0.17275399,-0.23879443,0.47952923,0.33765575,-0.23136522
439,4.389999999999951,0.86437976,0.17446141,-0.25153908,0.5335908,0.22922719,-0.30879238
440,4.399999999999951,0.910541,0.16976601,-0.28465074,0.5279403,0.226631,-0.39446622
441,4.40999999999995,0.9227367,0.1694611,-0.38538834,0.5172501,0.25702155,-0.47784933
442,4.41999999999995,0.9031625,0.15006974,-0.46527106,0.46853364,0.25411993,-0.5331327
443,4.42999999999995,0.86809945,0.20043853,-0.49600452,0.4147775,0.21594086,-0.5137377
444,4.43999999999995,0.84023196,0.28593132,-0.54460496,0.39003745,0.19150625,-0.43188173
445,4.4499999999999496,0.82486516,0.30099317,-0.5230183,0.49296826,0.14462234,-0.3735441
446,4.459999999999949,0.7340062,0.42093918,-0.47813767,0.67164636,0.12629639,-0.3368922
447,4.469999999999949,0.7340062,0.42093918,-0.47813767,0.9233228,0.1695151,-0.2828306
448,4.479999999999949,0.7340062,0.42093918,-0.47813767,0.9233228,0.1695151,-0.2828306
449,4.489999999999949,0.61576766,0.36050883,-0.4147193,1.7067575,0.63239825,-0.15134187
450,4.4999999999999485,0.5669233,0.36837515,-0.4557583,1.9752327,0.8089383,0.0012217305
451,4.509999999999948,0.7038825,0.25471,-0.58357066,1.9512563,1.1030699,0.14187345
452,4.519999999999948,1.2323279,0.15433827,-0.9815207,1.4358387,0.98822725,-0.16187929
453,4.529999999999948,1.1468961,0.27288178,-0.7888875,0.64766985,0.65209866,-0.4700608
454,4.539999999999948,1.3311752,0.24934383,-0.4334399,0.64766985,0.65209866,-0.4700608
455,4.549999999999947,1.519052,0.24635585,-0.35209373,0.4428773,0.8393288,-0.9014844
456,4.559999999999947,1.6382664,0.29452938,-0.3105669,1.1562152,0.9097311,-1.6852245
457,4.569999999999947,1.6316197,0.28696796,-0.37538776,1.6760615,0.94027436,-2.2007947
458,4.579999999999947,1.5288696,0.14104481,-0.54027545,2.3687828,0.97020674,-3.106097
459,4.589999999999947,1.3398952,-0.03140427,-0.7501047,2.3687828,0.97020674,-3.106097
460,4.599999999999946,1.1917158,-0.181474,-0.9071261,2.4804184,0.93828905,-3.58303
461,4.609999999999946,0.9730446,-0.31306705,-1.0957956,1.9601139,0.8889617,-3.3622024
462,4.619999999999946,0.85535485,-0.28227258,-1.1456157,0.5143485,0.8008443,-2.3787093
463,4.629999999999946,0.7160784,-0.13884957,-1.1429325,-0.47112983,0.7263188,-1.5344934
464,4.6399999999999455,0.69949204,0.020549979,-0.94133544,-0.47112983,0.7263188,-1.5344934
465,4.649999999999945,0.7653495,0.26336902,-0.59722996,-1.1004738,0.34162638,-0.6743952
466,4.659999999999945,1.0929906,0.4926507,-0.24440451,-1.2696834,0.029168816,-0.038026363
467,4.669999999999945,1.2652568,0.5662525,-0.11494574,-0.890947,-0.43508878,0.52778757
468,4.679999999999945,1.2652568,0.5662525,-0.11494574,-0.890947,-0.43508878,0.52778757
469,4.689999999999944,1.4251441,0.6283903,-0.20476803,-0.6151413,-0.27656925,0.07009678
470,4.699999999999944,1.4247172,0.5195425,-0.23946518,-0.6151413,-0.27656925,0.07009678
471,4.709999999999944,1.3603842,0.38008317,-0.30465192,-0.44241914,0.36285394,-0.7425067
472,4.719999999999944,1.2275106,0.2321477,-0.43429363,-0.39446622,0.9130908,-1.0858129
473,4.729999999999944,1.0581106,0.1548261,-0.3644115,-0.4810564,1.081995,-1.1542299
474,4.739999999999943,0.86864823,0.23403804,-0.22543997,-0.850019,1.0719157,-0.6806566
475,4.749999999999943,0.904443,0.2145247,0.012500729,-1.2534955,0.9718866,0.14905111
476,4.759999999999943,1.0110346,0.30861557,0.3348976,-1.6064229,0.5038111,1.1997393
477,4.769999999999943,1.1994603,0.39173016,0.43722063,-1.7056885,0.28787026,1.6856827
478,4.7799999999999425,1.3856297,0.4686249,0.49076036,-1.7182112,0.1441642,1.9271271
479,4.789999999999942,1.7539439,0.5893027,0.4846624,-1.3929255,-0.33826664,2.0265455
480,4.799999999999942,1.896818,0.6279025,0.40618226,-0.698219,-0.5009095,1.3672692
481,4.809999999999942,1.8495592,0.6182068,0.21434177,-0.01450805,-0.5137377,0.5410739
482,4.819999999999942,1.5968006,0.52826256,0.0014025208,1.2854131,-0.20799962,-1.1403327
483,4.8299999999999415,0.9546288,0.124031626,-0.33044612,1.2854131,-0.20799962,-1.1403327
484,4.839999999999941,0.9546288,0.124031626,-0.33044612,1.2854131,-0.20799962,-1.1403327
485,4.849999999999941,0.6718685,-0.03609967,-0.4765522,1.824349,0.4538729,-1.5873333
486,4.859999999999941,0.37563166,-0.18952326,-0.6408301,1.1268936,0.9427178,-0.6908886
487,4.869999999999941,0.21623214,-0.2420873,-0.76022726,0.37415496,1.1661417,-0.04337143
488,4.87999999999994,0.117384896,-0.23623328,-0.8728558,0.37415496,1.1661417,-0.04337143
489,4.88999999999994,0.13775194,-0.11317733,-0.68607664,-1.9346102,1.4570663,1.7980819
490,4.89999999999994,0.2909316,-0.012195834,-0.51179814,-2.3710735,1.300074,2.275473
491,4.90999999999994,0.47600338,0.10665256,-0.27117437,-2.4813347,1.0642799,2.5902214
492,4.9199999999999395,0.6015595,0.2061096,-0.065491624,-2.2742512,0.7680103,2.7517953
493,4.929999999999939,0.8093765,0.25611252,0.08409027,-1.6723963,0.56688297,2.7527115
494,4.939999999999939,1.0382314,0.22141537,0.083907336,-0.9230174,0.5673411,2.3854287
495,4.949999999999939,1.0382314,0.22141537,0.083907336,-0.9230174,0.5673411,2.3854287
496,4.959999999999939,1.0292674,0.15592372,-0.104945146,-0.16768251,0.7093673,1.2250903
497,4.9699999999999385,0.9488969,0.10890879,-0.18263261,-0.16768251,0.7093673,1.2250903
498,4.979999999999938,0.8183404,-0.006524771,-0.22104947,-0.29260445,1.217149,0.14553864
499,4.989999999999938,0.688028,-0.1188484,-0.18488884,-0.44348818,1.3574953,0.00580322
500,4.999999999999938,0.66168493,-0.16293633,-0.20848778,-0.6994407,1.4366024,0.10415252
501,5.009999999999938,0.7304085,-0.15878975,-0.25611252,-1.0282389,1.3469579,0.31902438
502,5.019999999999937,0.8063275,-0.12897095,-0.21769562,-1.2328788,1.2483032,0.4392121
503,5.029999999999937,0.883893,-0.0757971,-0.053844605,-1.5337299,1.0135782,0.66706485
504,5.039999999999937,1.1261023,0.024635585,0.23336728,-1.4792101,0.73975784,0.91813046
505,5.049999999999937,1.4012403,-0.02853825,0.29672462,-1.4792101,0.73975784,0.91813046
506,5.0599999999999365,1.4012403,-0.02853825,0.29672462,-1.155299,0.28145617,0.8144361
507,5.069999999999936,1.384471,-0.084029295,0.34794715,-1.155299,0.28145617,0.8144361
508,5.079999999999936,1.2220225,-0.12537317,0.38776654,-0.77640975,-0.75518215,0.6229298
509,5.089999999999936,0.8479153,-0.056100838,0.3714851,-0.86162543,-1.4798211,1.2748758
510,5.099999999999936,0.7748623,-0.13391025,0.41307288,-0.799928,-1.5763378,1.730734
511,5.1099999999999355,0.7244935,-0.2625763,0.5024074,-0.70295316,-1.5117388,2.038152
512,5.119999999999935,0.77181333,-0.34111744,0.54576355,-0.6592763,-1.205848,2.3258693
513,5.129999999999935,0.77181333,-0.34111744,0.54576355,-0.7451029,-0.7838928,2.4153612
514,5.139999999999935,0.97591066,-0.6057061,0.620707,-1.009913,-0.25228736,2.389552
515,5.149999999999935,1.0729284,-0.6091209,0.8702337,-1.2702943,0.021838432,2.3536637
516,5.159999999999934,1.0729284,-0.6091209,0.8702337,-1.2702943,0.021838432,2.3536637
517,5.169999999999934,1.2876971,-0.88175875,1.2977587,-1.5885551,0.42164972,2.4271204
518,5.179999999999934,1.5677135,-0.845964,1.4526457,-2.2385156,1.1420126,2.851977
519,5.189999999999934,1.9334055,-0.5867415,1.6319855,-2.6337454,1.4506522,2.8053987
520,5.199999999999934,2.1878107,-0.36258212,1.8954154,-2.7214046,1.7605137,2.3031147
521,5.209999999999933,2.3901396,-0.19690172,2.092744,-2.4521658,2.1267273,1.2586879
522,5.219999999999933,2.5220375,0.07067485,2.0006654,-1.8046486,2.294868,-0.7602218
523,5.229999999999933,2.4022133,0.21482961,1.7535169,-1.4880677,2.1751385,-2.1560488
524,5.239999999999933,1.6289974,0.5305188,1.3842272,-1.5421293,1.6772833,-4.1642685
525,5.2499999999999325,1.0559762,0.8497447,1.1177481,-2.491872,0.8046622,-3.3800702
526,5.259999999999932,0.5822291,1.1898865,2.4484355,-2.2237022,-0.6579019,-2.3006713
527,5.269999999999932,0.5822291,1.1898865,2.4484355,-2.2237022,-0.6579019,-2.3006713
528,5.279999999999932,0.5013097,-0.2977003,2.698816,2.0082195,-2.126269,0.090713486
529,5.289999999999932,0.5013097,-0.2977003,2.698816,4.157854,-2.2799017,0.93431836
530,5.299999999999931,0.52082306,-1.1039059,0.70266294,4.5766025,-2.1323779,1.4085026
531,5.309999999999931,0.52082306,-1.1039059,0.70266294,4.5766025,-2.1323779,1.4085026
532,5.319999999999931,0.52082306,-1.1039059,0.70266294,4.5766025,-2.1323779,1.4085026
533,5.329999999999931,0.52082306,-1.1039059,0.70266294,4.5766025,-2.1323779,1.4085026
534,5.339999999999931,0.65528214,-0.8337072,0.056954544,0.48151454,-1.3944527,1.263422
535,5.34999999999993,0.77455735,-0.42173192,0.7645568,-0.9272934,-0.08277224,0.42348233
536,5.35999999999993,0.8699898,-0.27507702,1.0356702,-0.81489426,0.34468073,0.12751812
537,5.36999999999993,0.9232856,-0.25208786,1.0987836,-0.68966687,0.34422258,0.07819075
538,5.37999999999993,0.9232856,-0.25208786,1.0987836,-0.68966687,0.34422258,0.07819075
539,5.3899999999999295,0.9143826,-0.1686074,1.164885,-0.03191771,-0.40744713,0.63591075
540,5.399999999999929,1.02134,-0.11207971,1.1096989,0.24923302,-0.6711882,1.0926852
541,5.409999999999929,1.1604946,-0.16885132,1.0660378,0.5025894,-0.7292204,1.2046263
542,5.419999999999929,1.2838553,-0.23165986,1.0032293,0.5025894,-0.7292204,1.2046263
543,5.429999999999929,1.2838553,-0.23165986,1.0032293,0.72356987,-0.6609562,1.0319041
544,5.4399999999999284,1.3216015,-0.25306356,0.6480866,0.6177375,-0.30772337,-0.59238654
545,5.449999999999928,1.2098267,-0.24074577,0.60832816,0.6177375,-0.30772337,-0.59238654
546,5.459999999999928,1.0414022,-0.20684133,0.7095536,0.36346483,-0.25488353,-0.9550878
547,5.469999999999928,0.73870164,-0.19409668,1.0031073,0.25244007,-0.23625213,-1.0659598
548,5.479999999999928,0.73870164,-0.19409668,1.0031073,0.41065416,-0.012980887,-0.97158116
549,5.489999999999927,0.71595645,-0.30257863,1.0992714,0.72387534,-0.112399206,-0.97784257
550,5.499999999999927,0.5807046,-0.17799819,0.9984119,0.9976957,-0.2947425,-0.8481864
551,5.509999999999927,0.5807046,-0.17799819,0.9984119,1.2890784,-0.38026363,-0.5119051
552,5.519999999999927,0.41539007,-0.20818289,0.872368,1.4727961,-0.28344148,-0.22128594
553,5.5299999999999265,0.4994194,-0.20787798,0.65930676,1.514793,-0.100792766,0.1207986
554,5.539999999999926,0.5685698,-0.25562465,0.54216576,1.3739886,-0.065973446,0.25305092
555,5.549999999999926,0.6707708,-0.3000175,0.48722354,0.9772317,-0.06337727,0.45738536
556,5.559999999999926,0.7838872,-0.31245726,0.4899676,0.6592763,-0.09682214,0.59864795
557,5.569999999999926,0.89133245,-0.30129808,0.5639963,0.4335616,-0.23243423,0.63071835
558,5.5799999999999255,0.8825515,-0.20507295,0.65235513,0.52412236,-0.6385069,0.54611355
559,5.589999999999925,0.8204747,-0.1797666,0.6061329,0.743423,-0.91797775,0.48624873
560,5.599999999999925,0.72760344,-0.20623155,0.59722996,1.0027353,-0.9298896,0.35827246
561,5.609999999999925,0.65363574,-0.20537783,0.53899485,1.0906999,-0.6073528,0.1826487
562,5.619999999999925,0.6169872,-0.14415476,0.4121582,0.9798279,-0.12034045,-0.124769226
563,5.629999999999924,0.65729445,-0.07884607,0.33910516,0.64675355,0.4689918,-0.49373183
564,5.639999999999924,0.6700391,-0.09238344,0.33550736,0.5465717,0.6621779,-0.59803706
565,5.649999999999924,0.71967614,-0.20928052,0.2706865,0.36667186,1.0612257,-0.7279987
566,5.659999999999924,0.9326763,-0.21525647,0.12573905,-0.09514226,0.9633345,-0.5983425
567,5.6699999999999235,0.9326763,-0.21525647,0.12573905,-0.09514226,0.9633345,-0.5983425
568,5.679999999999923,0.9327374,-0.109884456,0.30428603,-0.34773505,0.3529274,-0.3943135
569,5.689999999999923,0.9327374,-0.109884456,0.30428603,-0.321926,-0.3471242,-0.12095132
570,5.699999999999923,0.80041254,-0.079029,0.45655105,-0.0125227375,-0.80970186,0.1704314
571,5.709999999999923,0.7349209,-0.020184105,0.386425,0.34590244,-0.88407475,0.3539964
572,5.7199999999999225,0.7349209,-0.020184105,0.386425,0.34590244,-0.88407475,0.3539964
573,5.729999999999922,0.7825456,0.007866313,0.2374529,0.17211129,-0.16646078,0.20433442
574,5.739999999999922,0.9060894,-0.057747275,0.055308107,0.03436117,0.19975294,0.046578474
575,5.749999999999922,1.0528053,-0.14506944,-0.08933448,-0.26389378,0.4868596,-0.21945333
576,5.759999999999922,1.1167725,-0.14031307,-0.10531103,-0.65500027,0.4447099,-0.536187
577,5.769999999999921,1.0950639,-0.10616472,-0.050368793,-0.87017757,0.3576616,-0.69989884
578,5.779999999999921,1.0950639,-0.10616472,-0.050368793,-1.0290025,0.13179417,-0.88712907
579,5.789999999999921,1.0025585,-0.05927175,0.15811898,-1.0290025,0.13179417,-0.88712907
580,5.799999999999921,0.872307,0.1042134,0.47106406,-1.0290025,0.13179417,-0.88712907
581,5.809999999999921,0.913224,0.019879209,0.37459502,-1.0290025,0.13179417,-0.88712907
582,5.81999999999992,0.6394885,0.07860215,0.22007383,0.29749137,-0.678824,-0.86315256
583,5.82999999999992,0.6394885,0.07860215,0.22007383,0.5529858,-0.55573463,-0.49754974
584,5.83999999999992,0.6383299,0.03225798,0.067625895,0.5529858,-0.55573463,-0.49754974
585,5.84999999999992,0.7326037,-0.024574606,-0.06475988,0.44165558,-0.55863625,-0.32696563
586,5.8599999999999195,0.7602883,-0.018720604,-0.11037229,0.29229903,-0.6058256,-0.28603765
587,5.869999999999919,0.7490681,-0.03000175,-0.10451829,0.13469578,-0.659429,-0.28680122
588,5.879999999999919,0.6977236,-0.07890704,-0.059088815,-0.002443461,-0.6310238,-0.31230485
589,5.889999999999919,0.69272333,-0.1372641,-0.15635058,-0.36819902,-0.45616361,-0.22235495
590,5.899999999999919,0.69272333,-0.1372641,-0.15635058,-0.6229298,-0.5271767,-0.14905111
591,5.909999999999918,0.6829667,0.036160648,0.13330047,-0.75579304,-0.6914995,-0.02687807
592,5.919999999999918,0.76772773,0.140496,0.27562585,-0.5580254,-0.89858276,0.12935072
593,5.929999999999918,0.76772773,0.140496,0.27562585,-0.21685717,-0.9660834,0.107359566
594,5.939999999999918,0.8829783,0.08128523,0.28971204,0.13545936,-0.9640981,-0.009162978
595,5.949999999999918,0.910236,0.023416,0.12842213,0.32650748,-0.839787,-0.16508633
596,5.959999999999917,0.86694086,0.005793021,0.035124,0.2527455,-0.73792523,-0.24663684
597,5.969999999999917,0.81748676,-0.03305071,0.028294332,0.061086524,-0.657291,-0.25671613
598,5.979999999999917,0.799071,-0.06530869,0.036282603,-0.047647487,-0.5664248,-0.22479841
599,5.989999999999917,0.8131572,-0.078480184,0.0005488125,-0.129198,-0.48517972,-0.20845777
600,5.9999999999999165,0.8213284,-0.07122366,-0.038965687,-0.19898935,-0.45631635,-0.24327709
601,6.009999999999916,0.8190721,-0.0082321875,0.005610083,-0.26984972,-0.5728389,-0.3436117
602,6.019999999999916,0.7977295,0.049637042,0.006097917,-0.267559,-0.64873886,-0.42149702
603,6.029999999999916,0.7779722,0.052015226,0.0336605,-0.18112154,-0.68737614,-0.49434268
604,6.039999999999916,0.7563856,0.048051585,0.050063897,0.09987647,-0.6563747,-0.6088799
605,6.0499999999999154,0.6132065,0.014391083,0.0056710625,0.34513888,-0.6646214,-0.63300914
606,6.059999999999915,0.52942115,0.019513333,-0.04981998,0.44532076,-0.66767573,-0.58093286
607,6.069999999999915,0.52942115,0.019513333,-0.04981998,0.5502369,-0.5882632,-0.21242839
608,6.079999999999915,0.51246893,-0.023111105,-0.08354146,0.5502369,-0.5882632,-0.21242839
609,6.089999999999915,0.72961575,-0.028843146,-0.45606318,0.10980303,-0.7791586,-0.26328292
610,6.099999999999914,0.72961575,-0.028843146,-0.45606318,0.10980303,-0.7791586,-0.26328292
611,6.109999999999914,0.6129016,0.08774903,-0.35044727,-0.23747386,-0.9279043,-0.38713586
612,6.119999999999914,0.6129016,0.08774903,-0.35044727,-0.50991976,-0.9419542,-0.47326785
613,6.129999999999914,0.73254275,0.17031482,-0.2250741,-0.18325958,-0.59971696,-0.64751714
614,6.1399999999999135,0.77449644,0.23733091,-0.22397648,0.21685717,-0.37048978,-0.86742866
615,6.149999999999913,0.79553425,0.2836141,-0.26044202,0.5459608,-0.19165897,-1.0496192
616,6.159999999999913,0.70382154,0.2941635,-0.30483487,0.8542951,-0.039858956,-1.1815661
617,6.169999999999913,0.45978296,0.25592956,-0.3492277,1.1861476,0.07345655,-1.0809261
618,6.179999999999913,0.45978296,0.25592956,-0.3492277,1.1861476,0.07345655,-1.0809261
619,6.1899999999999125,0.25489292,0.23172083,-0.36800927,1.5431983,0.623388,0.16691893
620,6.199999999999912,0.24153848,0.15708233,-0.5022244,1.5790867,0.90041536,0.79000145
621,6.209999999999912,0.45813647,0.06646729,-0.61296254,1.5555683,1.1682798,1.3012956
622,6.219999999999912,0.7075413,0.035306938,-0.6290611,1.474476,1.4648548,1.5796975
623,6.229999999999912,1.1310416,-0.008415125,-0.640891,1.4068227,1.9475911,1.4194981
624,6.239999999999911,1.4967337,0.029940773,-0.6274756,1.4115568,2.0257819,0.7341073
625,6.249999999999911,1.7052215,0.08244383,-0.59722996,1.4853189,1.9286543,-0.01985312
626,6.259999999999911,1.8692554,0.097200796,-0.5836316,1.627345,1.7841847,-0.8503244
627,6.269999999999911,1.9724932,-0.00073175,-0.7646178,1.8629863,1.4459181,-1.9544634
628,6.2799999999999105,1.7486995,-0.07195542,-1.1075647,1.8629863,1.4459181,-1.9544634
629,6.28999999999991,1.973164,-0.07165052,-0.9849355,1.2279918,0.44257188,-4.0964622
630,6.29999999999991,0.86675787,-0.015854584,-0.92706627,0.701426,0.2941316,-3.932903
631,6.30999999999991,0.86675787,-0.015854584,-0.92706627,0.701426,0.2941316,-3.932903
632,6.31999999999991,0.5660696,0.017135147,-0.85492796,0.37400225,0.3306308,-3.5031595
633,6.3299999999999095,0.42191488,0.07939488,-0.752361,-0.38453966,0.61727935,-2.172084
634,6.339999999999909,0.69510156,0.34623972,-0.2948343,-1.3191634,0.5366451,-0.0036651916
635,6.349999999999909,1.194338,0.52942115,-0.06841862,-1.3923146,0.2846632,0.700357
636,6.359999999999909,1.6991845,0.632293,-0.114823766,-1.2721269,0.028252518,0.98837996
637,6.369999999999909,1.6991845,0.632293,-0.114823766,-0.86254174,-0.4885395,0.5477934
638,6.379999999999908,2.0863411,0.69674796,-0.06933331,-0.09987647,-1.0030408,-0.5670357
639,6.389999999999908,1.8290701,0.620524,0.06744295,0.30955598,-1.0036516,-1.029308
640,6.399999999999908,1.5361263,0.5188717,0.07549221,0.77106464,-0.7829765,-1.4640913
641,6.409999999999908,1.2545244,0.39599872,-0.008171208,1.0297661,-0.19318613,-1.6374242
642,6.419999999999908,0.90438205,0.23452587,-0.2923341,0.8730792,0.5739079,-1.4176655
643,6.429999999999907,0.77559406,0.08104131,-0.48569906,0.48533243,1.2090551,-1.0899363
644,6.439999999999907,0.6943088,-0.06933331,-0.5597278,-0.30955598,1.934763,-0.5914703
645,6.449999999999907,0.6507697,-0.08280971,-0.39447424,-1.3213016,2.239432,0.028405234
646,6.459999999999907,0.60046184,0.040246252,-0.10195717,-2.355649,0.8700248,1.8920023
647,6.4699999999999065,1.6660728,0.34398347,0.30459094,-2.355649,0.8700248,1.8920023
648,6.479999999999906,1.6660728,0.34398347,0.30459094,-1.4431691,-0.99265605,2.876717
649,6.489999999999906,2.3172696,0.43813533,0.29824913,-0.34880406,-1.750129,1.9080375
650,6.499999999999906,2.705402,0.48960173,0.3999014,-0.34880406,-1.750129,1.9080375
651,6.509999999999906,2.0207884,0.3620943,0.40295035,1.9743165,-2.5463917,-0.6919576
652,6.519999999999905,1.6091793,0.22995245,0.26007617,2.6784914,-2.2956316,-1.5963436
653,6.529999999999905,1.1050035,-0.036770437,0.13695921,2.6784914,-2.2956316,-1.5963436
654,6.539999999999905,0.6466231,-0.21848835,-0.027196707,2.9735394,-1.1473577,-2.234087
655,6.549999999999905,0.36843613,-0.23111105,-0.23495273,2.4882069,-0.38591412,-1.9478966
656,6.559999999999905,0.23416002,-0.12580003,-0.42130506,1.3203852,0.45875978,-1.0865766
657,6.569999999999904,0.31068885,-0.013659334,-0.53984857,0.20799962,0.75594574,-0.20906863
658,6.579999999999904,0.5459465,0.030306645,-0.48545516,-0.9268353,0.73807794,0.7405214
659,6.589999999999904,0.7068095,0.04622221,-0.41386563,-1.4475979,0.65377855,1.274723
660,6.599999999999904,0.7777893,0.10122541,-0.2763576,-1.5289958,0.48166725,1.5954273
661,6.6099999999999035,0.8766975,0.14671588,-0.1009815,-1.5289958,0.48166725,1.5954273
662,6.619999999999903,0.9358473,0.124336526,-0.05335677,-0.6075055,0.52366424,1.2731959
663,6.629999999999903,0.9210293,0.08652944,-0.10957957,-0.3387248,0.66889745,0.9978484
664,6.639999999999903,0.86334306,-0.0024391667,-0.23867247,-0.11789699,0.98563105,0.52442783
665,6.649999999999903,0.81510854,-0.08591965,-0.33751968,-0.2171626,1.3419182,0.0842994
666,6.659999999999902,0.6389397,-0.2174517,-0.43905002,-0.552833,1.6285667,-0.28221974
667,6.669999999999902,0.6389397,-0.2174517,-0.43905002,-1.3655893,1.952478,-0.601855
668,6.679999999999902,0.5127738,-0.22361061,-0.44124526,-1.794264,1.8852829,-0.52732944
669,6.689999999999902,0.3842907,-0.1542773,-0.30349332,-1.794264,1.8852829,-0.52732944
670,6.699999999999902,0.29471233,0.16665606,0.08640748,-2.11451,1.2968669,-0.08277224
671,6.709999999999901,0.29471233,0.16665606,0.08640748,-1.7621936,0.33292156,1.0415252
672,6.719999999999901,0.68497896,0.19098675,0.23519666,-1.0535898,-0.17363845,1.3784174
673,6.729999999999901,0.8055348,0.14061797,0.24727054,-0.26939157,-0.45555276,1.3049608
674,6.739999999999901,0.84267116,0.08067544,0.17525412,0.16203201,-0.41920626,1.0103711
675,6.7499999999999005,0.84267116,0.08067544,0.17525412,0.16203201,-0.41920626,1.0103711
676,6.7599999999999,0.84267116,0.08067544,0.17525412,0.16203201,-0.41920626,1.0103711
677,6.7699999999999,0.8467567,0.013476395,0.050917607,-0.36483926,0.5334381,-0.4196644
678,6.7799999999999,0.670222,0.05689356,-0.06591848,-0.91614515,0.6542367,-0.5520695
679,6.7899999999999,0.63302475,0.1539724,0.040246252,-1.4778358,0.61437774,-0.40011674
680,6.7999999999998995,0.75553185,0.1323248,0.18159597,-1.6500998,0.3585779,-0.1469131
681,6.809999999999899,0.7858995,0.123055965,0.27507702,-1.5697709,0.1067487,0.0711658
682,6.819999999999899,0.6949796,0.06079623,0.3392271,-1.3031282,-0.1740966,0.50701815
683,6.829999999999899,0.6598556,0.03140427,0.3553256,-1.0946705,-0.31749722,0.86742866
684,6.839999999999899,0.8599892,-0.102384016,0.3594722,-0.784351,-0.22021692,1.6922494
685,6.849999999999898,0.8599892,-0.102384016,0.3594722,-0.784351,-0.22021692,1.6922494
686,6.859999999999898,1.0329262,-0.0307335,0.32916555,-0.9651671,0.03863723,1.7023287
687,6.869999999999898,1.2265959,-0.005427146,0.39557186,-1.2756393,0.3559817,1.3736832
688,6.879999999999898,1.2607442,-0.012683666,0.64211065,-1.455081,0.58032197,0.3585779
689,6.8899999999998975,1.2125098,0.06256463,0.79126567,-1.3074044,0.634689,0.16722436
690,6.899999999999897,1.1810445,0.05110054,0.7818139,-1.3074044,0.634689,0.16722436
691,6.909999999999897,1.071282,-0.08024859,0.76772773,-1.0590876,0.51175237,0.1779145
692,6.919999999999897,0.84163445,-0.3758756,0.8036444,-1.1931726,0.53878313,0.86819226
693,6.929999999999897,0.81943804,-0.43222034,0.91328496,-1.4833336,0.71975195,1.4271339
694,6.9399999999998965,0.96481246,-0.3749609,1.0139616,-1.8521434,0.98547834,1.9289597
695,6.949999999999896,0.96481246,-0.3749609,1.0139616,-1.8521434,0.98547834,1.9289597
696,6.959999999999896,1.5165519,-0.15732625,1.3842272,-2.2467623,1.3006848,2.180789
697,6.969999999999896,1.8387659,-0.03652652,1.6564381,-2.533869,1.4588989,1.42973
698,6.979999999999896,2.036704,0.008598062,1.6715,-2.1616993,0.96776325,0.45662177
699,6.989999999999895,1.9720054,0.059759583,1.6327171,-1.9040669,0.6010914,-0.17394388
700,6.999999999999895,1.7338817,0.16488767,1.5934466,-1.539075,0.3089451,-1.0549643
701,7.009999999999895,1.5637498,0.29032183,1.5175886,-1.4248432,0.21395555,-1.3988814
702,7.019999999999895,1.4555118,0.34654462,1.4890503,-1.3779593,0.16997325,-1.5942056
703,7.0299999999998946,1.2517194,0.44325754,1.6339369,-1.2087497,0.104610674,-1.9414824
704,7.039999999999894,1.0411583,0.33770263,1.943528,-0.67011917,0.018478673,-2.1959078
705,7.049999999999894,0.71967614,-0.24477036,1.7783965,0.09666943,0.029474247,-2.191021
706,7.059999999999894,0.71967614,-0.24477036,1.7783965,0.9483683,0.068264194,-1.8898643
707,7.069999999999894,0.71967614,-0.24477036,1.7783965,1.6036739,-0.062155537,-1.306488
708,7.0799999999998935,0.70491916,-0.68064946,0.56777704,1.8261817,-0.70066243,0.009010263
709,7.089999999999893,0.8465128,-0.5739969,0.57564336,0.7837401,-1.7837266,1.6387987
710,7.099999999999893,0.9237125,-0.41630477,0.80742514,0.12018774,-1.9963076,1.8387043
711,7.109999999999893,0.9237125,-0.41630477,0.80742514,-0.19730948,-1.72264,1.7229455
712,7.119999999999893,1.1389079,-0.26214942,1.1858618,-0.22464569,-1.1485794,1.2690725
713,7.129999999999892,1.1389079,-0.26214942,1.1858618,-0.22464569,-1.1485794,1.2690725
714,7.139999999999892,1.3103204,-0.3213602,1.0912832,0.22815818,-0.39690968,0.14813483
715,7.149999999999892,1.3178818,-0.31154257,0.9592023,0.4017966,-0.0926988,-0.40500367
716,7.159999999999892,1.3682506,-0.30105415,0.79193646,0.33505958,0.12110403,-0.79290307
717,7.169999999999892,1.3910568,-0.22854991,0.7040655,0.33505958,0.12110403,-0.79290307
718,7.179999999999891,1.3910568,-0.22854991,0.7040655,0.13927728,0.15241088,-1.0584768
719,7.189999999999891,1.3910568,-0.22854991,0.7040655,0.13927728,0.15241088,-1.0584768
720,7.199999999999891,1.088783,-0.14378887,0.8125474,-0.31688634,-0.09987647,-1.295187
721,7.209999999999891,1.0278649,-0.06213777,1.0073149,-0.22999077,-0.15286903,-1.2050844
722,7.2199999999998905,0.8862102,0.011829958,1.0926857,0.010079277,-0.20219639,-0.93309665
723,7.22999999999989,0.8862102,0.011829958,1.0926857,0.010079277,-0.20219639,-0.93309665
724,7.23999999999989,0.8334633,0.035367917,0.94182324,0.010079277,-0.20219639,-0.93309665
725,7.24999999999989,0.7780332,0.017805915,0.886881,0.70234233,-0.19868392,0.08307768
726,7.25999999999989,0.6712587,-0.0073175007,0.85639143,0.76923203,-0.18203785,0.36117408
727,7.269999999999889,0.5524712,0.0071345624,0.8842589,0.7643451,-0.21670444,0.7991645
728,7.279999999999889,0.57064307,-0.08781,0.7296767,0.77320266,-0.32604933,1.1006265
729,7.289999999999889,0.57064307,-0.08781,0.7296767,0.7460192,-0.4905248,1.3544409
730,7.299999999999889,0.6068037,-0.13092227,0.5980227,0.6094908,-0.72189003,1.5465581
731,7.309999999999889,0.6049743,-0.14311811,0.5898515,0.17608191,-0.7623598,1.5622878
732,7.319999999999888,0.6133285,-0.21495157,0.67516136,-0.08323039,-0.54092115,1.4227052
733,7.329999999999888,0.59674215,-0.21019518,0.822548,-0.23335053,-0.37110063,1.3037392
734,7.339999999999888,0.5889978,-0.099822894,0.90395516,-0.22006421,-0.30879238,1.2680036
735,7.349999999999888,0.69290626,-0.06726002,0.8232187,-0.05589417,-0.33948836,1.288773
736,7.3599999999998875,0.69290626,-0.06726002,0.8232187,-0.05589417,-0.33948836,1.288773
737,7.369999999999887,0.8133401,-0.06262561,0.6669901,0.27198774,-0.47311515,1.1372783
738,7.379999999999887,0.8133401,-0.06262561,0.6669901,0.99128157,-0.6417139,0.46715918
739,7.389999999999887,0.6677219,-0.038477857,0.5901564,1.186453,-0.52488595,0.25503623
740,7.399999999999887,0.61180395,-0.09171267,0.5132617,1.186453,-0.52488595,0.25503623
741,7.4099999999998865,0.57863134,-0.17671762,0.365875,1.473407,0.13240504,-0.4541783
742,7.419999999999886,0.58003384,-0.23763582,0.21068303,1.3083206,0.43493605,-0.67179906
743,7.429999999999886,0.5551544,-0.2502585,0.11897036,1.026559,0.45998153,-0.7078401
744,7.439999999999886,0.50448066,-0.24245316,0.06671121,0.61819565,0.19165897,-0.5001459
745,7.449999999999886,0.48100364,-0.23964813,0.06988213,0.31764993,-0.18310685,-0.14446963
746,7.459999999999885,0.47191778,-0.21854934,0.14019111,0.05467244,-0.6478226,0.4111123
747,7.469999999999885,0.5635695,-0.10854292,0.22306179,0.05467244,-0.6478226,0.4111123
748,7.479999999999885,0.5635695,-0.10854292,0.22306179,0.074067414,-0.9663888,1.0682507
749,7.489999999999885,0.6476597,-0.064637914,0.21848835,0.22052236,-0.8578075,1.2180653
750,7.4999999999998845,0.7637641,-0.018598646,0.23275748,0.29275718,-0.6097962,1.1122329
751,7.509999999999884,0.86334306,-0.00048783334,0.20623155,0.35842517,-0.26450464,0.7466301
752,7.519999999999884,0.9021258,-0.005732042,0.17793721,0.36972618,0.25518894,-0.20112738
753,7.529999999999884,0.8747462,-0.021098793,0.14763056,0.36972618,0.25518894,-0.20112738
754,7.539999999999884,0.8747462,-0.021098793,0.14763056,0.34132096,0.2666427,-0.57436603
755,7.5499999999998835,0.67430764,-0.06085721,0.13147108,0.37384954,0.013897184,-0.79336125
756,7.559999999999883,0.5862537,-0.1214705,0.1030548,0.48365256,-0.048716504,-0.6407976
757,7.569999999999883,0.5128958,-0.18373023,-0.030428605,0.5954409,-0.013286319,-0.30741793
758,7.579999999999883,0.5277137,-0.1967188,-0.14415476,0.589485,0.049480084,-0.01160644
759,7.589999999999883,0.58698547,-0.20684133,-0.21653701,0.589485,0.049480084,-0.01160644
760,7.599999999999882,0.6679658,-0.20928052,-0.22397648,0.1479821,0.24633141,0.44715336
761,7.609999999999882,0.7589467,-0.19793838,-0.21293926,-0.13118331,0.34605515,0.5160284
762,7.619999999999882,0.7589467,-0.19793838,-0.21293926,-0.13118331,0.34605515,0.5160284
763,7.629999999999882,1.0058514,-0.076711796,-0.111591876,-0.7089091,0.41523564,0.32604933
764,7.6399999999998816,1.0496954,0.006890646,0.035489876,-0.7264715,0.30497447,0.14172074
765,7.649999999999881,1.0828681,0.04750277,0.15616766,-0.4859433,0.116980694,-0.10308351
766,7.659999999999881,1.0789044,0.027074749,0.17683959,-0.16539176,-0.03634648,-0.27290404
767,7.669999999999881,1.0168276,-0.0026221042,0.16000934,0.22479841,-0.13912456,-0.43890667
768,7.679999999999881,0.9532263,-0.030977417,0.10512808,0.44257188,-0.19150625,-0.52656585
769,7.6899999999998805,0.8952962,-0.06768687,0.018781584,0.5184719,-0.16905695,-0.5555819
770,7.69999999999988,0.84078074,-0.090737,-0.07067485,0.36117408,-0.028405234,-0.43967026
771,7.70999999999988,0.84151256,-0.09079798,-0.098420374,0.21792617,0.03924809,-0.3491095
772,7.71999999999988,0.998107,-0.08409027,-0.115006715,-0.084910266,0.16798794,-0.2648101
773,7.72999999999988,0.998107,-0.08409027,-0.115006715,-0.084910266,0.16798794,-0.2648101
774,7.739999999999879,1.0338409,0.023416,0.052686002,-0.5354234,0.11056661,-0.86070913
775,7.749999999999879,1.0338409,0.023416,0.052686002,-0.5354234,0.11056661,-0.86070913
776,7.759999999999879,0.96493435,0.06768687,0.14598413,-0.28817567,-0.09712757,-1.1690434
777,7.769999999999879,0.8835272,0.074272625,0.23666015,-0.28817567,-0.09712757,-1.1690434
778,7.779999999999879,0.7839482,0.10488417,0.2382456,0.13103059,-0.31413746,-1.1507174
779,7.789999999999878,0.69534546,0.13683724,0.20184104,0.29657507,-0.5010622,-1.125672
780,7.799999999999878,0.6299758,0.16177773,0.19409668,0.3622431,-0.6262896,-1.0942124
781,7.809999999999878,0.6047914,0.17793721,0.12153149,0.39599338,-0.63194007,-1.0096076
782,7.819999999999878,0.6043645,0.16007032,0.024757542,0.43997568,-0.50808716,-0.87766063
783,7.8299999999998775,0.626439,0.11671413,-0.012988563,0.49357912,-0.41981715,-0.7958047
784,7.839999999999877,0.6802836,0.05652769,-0.05067369,0.5580254,-0.28023443,-0.6956228
785,7.849999999999877,0.74022615,0.082199916,-0.062076796,0.61575216,-0.17837265,-0.6382015
786,7.859999999999877,0.8139499,0.1331785,-0.104396336,0.66416323,-0.13408493,-0.60246587
787,7.869999999999877,0.93109095,0.1568994,-0.085004956,0.7476991,-0.09712757,-0.6743952
788,7.879999999999876,0.93109095,0.1568994,-0.085004956,1.0716103,-0.12721269,-0.93523467
789,7.889999999999876,0.8896251,0.16879034,-0.09384694,1.0716103,-0.12721269,-0.93523467
790,7.899999999999876,0.78291154,0.13019052,-0.06860156,1.4043792,-0.021380283,-1.0082331
791,7.909999999999876,0.78291154,0.13019052,-0.06860156,1.4043792,-0.021380283,-1.0082331
792,7.919999999999876,0.7016873,0.12622687,-0.085431814,2.0195205,0.50625455,-0.89873546
793,7.929999999999875,1.1485426,-0.061527982,-0.80279076,1.712408,0.21609358,-0.9815077
794,7.939999999999875,1.0458537,-0.050856624,-0.629488,1.7104226,0.45753807,-1.1782063
795,7.949999999999875,1.241048,-0.07012604,-0.9387134,1.106277,0.052839845,-1.4520267
796,7.959999999999875,1.1698244,-0.023233064,-0.7630933,0.28237244,-0.68523806,-1.8015944
797,7.9699999999998745,1.0681111,-0.030550564,-0.5769239,0.25228736,-0.82604253,-1.9210185
798,7.979999999999874,0.9867649,-0.0026830835,-0.54783684,0.4550946,-0.5696318,-1.9709567
799,7.989999999999874,0.933591,0.07658983,-0.6424155,0.5804747,-0.31490102,-1.9456058
800,7.999999999999874,0.8494398,0.1504356,-0.7011995,0.56306505,-0.2780964,-1.7415768
801,8.009999999999874,0.6779664,0.28489465,-0.6933941,0.4476115,-0.40882155,-1.313513
802,8.019999999999873,0.73693323,0.36246017,-0.7907169,0.2405282,-0.69806623,-0.5111415
803,8.029999999999873,0.9238344,0.35996002,-0.8584647,-0.055588737,-1.1470522,0.01740966
804,8.039999999999873,1.0396339,0.4212441,-0.67631996,-0.59299743,-1.7638733,0.34681875
805,8.049999999999873,1.0396339,0.4212441,-0.67631996,-1.1549934,-1.8942931,0.44898596
806,8.059999999999873,1.2676959,0.6608312,-0.26910108,-1.3888022,-1.6444492,0.30940324
807,8.069999999999872,1.4027038,0.76266646,-0.08043153,-1.415222,-1.0537425,-0.33169982
808,8.079999999999872,1.4444135,0.8294386,0.14921603,-0.96929044,-0.35170567,-1.2615894
809,8.089999999999872,1.413741,0.81724274,0.19873111,-0.38774672,0.25870144,-1.9956968
810,8.099999999999872,1.3148938,0.7569344,0.12830016,0.33078352,0.8174904,-2.6284003
811,8.109999999999872,1.1868985,0.7437629,-0.08622454,0.6702719,0.92072666,-2.790585
812,8.119999999999871,1.0490246,0.64528155,-0.42703712,0.4569272,-0.06780604,-1.8947513
813,8.129999999999871,1.0490246,0.64528155,-0.42703712,0.4569272,-0.06780604,-1.8947513
814,8.139999999999871,0.9849965,0.5713748,-0.27032065,0.21639901,-0.6385069,-1.278541
815,8.14999999999987,0.9849965,0.5713748,-0.27032065,0.109650314,-1.0778717,-0.057726767
816,8.15999999999987,0.9917042,0.49100426,-0.10994543,0.18646662,-0.45066583,0.23747386
817,8.16999999999987,1.0362799,0.4378914,-0.19458452,0.0852157,0.3921755,0.3005457
818,8.17999999999987,1.0362799,0.4378914,-0.19458452,-0.28084528,1.4198035,0.17669277
819,8.18999999999987,1.1468352,0.3468495,-0.23135497,-0.6068946,1.6030631,-0.013286319
820,8.19999999999987,1.1468352,0.3468495,-0.23135497,-0.6068946,1.6030631,-0.013286319
821,8.20999999999987,1.2514755,0.45240447,-0.034270294,-0.6068946,1.6030631,-0.013286319
822,8.21999999999987,1.3889225,0.50624907,0.2344649,0.016035212,0.61651576,-0.3100141
823,8.229999999999869,1.2339745,0.38502246,0.24952675,0.89766645,0.17669277,-0.30390546
824,8.239999999999869,1.0888441,0.28379703,0.04768571,1.4401149,0.08384126,-0.13240504
825,8.249999999999869,0.9204195,0.23818462,-0.09439575,1.4153748,0.24648413,0.112704635
826,8.259999999999868,0.84291506,0.21434177,-0.22495215,0.9118691,0.7370089,0.5233588
827,8.269999999999868,0.8337681,0.21245141,-0.3352025,0.30695978,1.2415836,0.8564331
828,8.279999999999868,0.90145504,0.114823766,-0.37130213,-0.4454735,1.8671097,1.1291844
829,8.289999999999868,0.94383556,0.04311227,-0.32562876,-0.9233228,2.3170118,1.1904236
830,8.299999999999867,0.9753008,0.051771317,-0.25672227,-1.2799155,2.5173757,1.1739303
831,8.309999999999867,1.1725074,0.30196884,-0.13842271,-1.5529722,1.5354098,1.1823297
832,8.319999999999867,1.1715927,0.32233587,-0.007622396,-1.2516629,0.78542,1.112691
833,8.329999999999867,1.1715927,0.32233587,-0.007622396,-1.2516629,0.78542,1.112691
834,8.339999999999867,1.0057904,0.19037697,0.17848602,-0.56199604,0.17684549,1.0668762
835,8.349999999999866,0.62717074,0.08549279,0.27733323,0.22770002,-0.18982637,1.4184291
836,8.359999999999866,0.5762531,0.17787623,0.14805742,-0.03023783,0.055741455,1.8414533
837,8.369999999999866,0.6588799,0.23324533,0.086285524,-0.36972618,0.21151209,2.0760255
838,8.379999999999866,0.8054128,0.22092752,0.06305246,-0.56673026,0.34330627,2.0668626
839,8.389999999999866,0.94194525,0.17781526,0.038172957,-0.50854534,0.5493206,1.7079792
840,8.399999999999865,0.94151837,0.16189969,-0.060125455,-0.50854534,0.5493206,1.7079792
841,8.409999999999865,0.85492796,0.15531394,-0.12567806,-0.0786489,0.7687739,0.60139686
842,8.419999999999865,0.78333837,0.1562896,-0.12738548,-0.06719518,0.76144356,0.5439755
843,8.429999999999865,0.78333837,0.1562896,-0.12738548,-0.06719518,0.76144356,0.5439755
844,8.439999999999864,0.6535137,0.06683317,-0.11153089,0.10323623,0.27672195,0.505491
845,8.449999999999864,0.5744847,-0.11012838,-0.1413497,0.18829921,0.24205536,0.6750061
846,8.459999999999864,0.5342995,-0.12750745,-0.1624485,0.20311269,0.25702155,0.850019
847,8.469999999999864,0.49801686,-0.112140685,-0.29898086,-0.10293079,0.56337047,1.2406673
848,8.479999999999864,0.51942056,-0.09896919,-0.35349622,-0.41141775,0.7472409,1.395827
849,8.489999999999863,0.51942056,-0.09896919,-0.35349622,-0.70341134,0.92485,1.4483615
850,8.499999999999863,0.6412569,-0.12159246,-0.3339829,-0.9088148,0.91614515,1.3871223
851,8.509999999999863,0.7584589,-0.107628234,-0.31788442,-0.9088148,0.91614515,1.3871223
852,8.519999999999863,0.85687923,-0.02628202,-0.21458568,-1.10139,0.7328856,1.2557862
853,8.529999999999863,0.9296274,0.11177482,-0.009878625,-1.0381655,0.43279803,1.0958922
854,8.539999999999862,1.0267063,0.155131,0.105067104,-0.7626653,0.26206118,0.9221011
855,8.549999999999862,1.1594579,-0.017074168,0.092932254,-0.23884831,0.29535335,0.548557
856,8.559999999999862,0.9607878,-0.069760166,-0.14622805,0.26923886,0.66981375,-0.10919216
857,8.569999999999862,0.76913023,-0.10689648,-0.26416174,0.03481932,0.7475463,-0.11224649
858,8.579999999999862,0.65509915,-0.15171617,-0.18580353,-0.17272215,0.70509124,0.021227567
859,8.589999999999861,0.6154018,-0.29263905,0.020184105,-0.38026363,0.4297437,0.47250426
860,8.599999999999861,0.8058397,-0.4733203,0.13884957,-0.43233988,0.100792766,0.9958631
861,8.60999999999986,0.92724925,-0.57619214,0.19641389,-0.51053065,-0.12156218,1.2654073
862,8.61999999999986,0.910541,-0.59588844,0.32123825,-0.7142542,-0.39828414,1.4659239
863,8.62999999999986,0.86651397,-0.5370435,0.6519283,-1.0461067,-0.6366743,1.7705929
864,8.63999999999986,0.9365181,-0.57497257,0.99371654,-1.276403,-0.5448918,2.05266
865,8.64999999999986,0.9978021,-0.65973365,1.2014726,-1.3313808,-0.29016098,2.117259
866,8.65999999999986,1.1187238,-0.68247885,1.4602681,-1.2997686,0.5384777,1.9084958
867,8.66999999999986,1.4152654,-0.74053097,1.3280044,-1.5528195,1.2342533,1.3437508
868,8.67999999999986,1.4152654,-0.74053097,1.3280044,-1.5528195,1.2342533,1.3437508
869,8.68999999999986,1.4152654,-0.74053097,1.3280044,-1.5528195,1.2342533,1.3437508
870,8.699999999999859,1.4175828,-0.47783276,2.0732918,-3.591277,1.0699304,-0.30650163
871,8.709999999999859,1.4175828,-0.47783276,2.0732918,-3.9968913,0.6415612,-0.13973543
872,8.719999999999859,1.7755303,-0.030489584,2.432032,-3.22827,0.06704246,0.09514226
873,8.729999999999858,1.9392594,0.24696562,2.3181841,-2.2292,-0.04153884,-0.711658
874,8.739999999999858,1.9398082,0.32886064,2.0174956,-2.2292,-0.04153884,-0.711658
875,8.749999999999858,1.7882141,0.27391842,1.7529682,-1.5060883,0.039553523,-1.7191275
876,8.759999999999858,1.5209423,0.17940071,1.6759514,-1.0871874,0.15149458,-2.9049697
877,8.769999999999857,1.5209423,0.17940071,1.6759514,-0.9935723,0.1553125,-3.207806
878,8.779999999999857,0.9670686,-0.030184686,1.3712995,-0.86529064,-0.17730364,-2.5008824
879,8.789999999999857,0.7410189,-0.18476687,1.3080641,-0.5871942,-0.81077087,-1.2695307
880,8.799999999999857,0.6760151,-0.25568563,1.3672749,-0.17898351,-1.3639094,0.023518313
881,8.809999999999857,0.7579711,-0.3333731,1.3042225,-0.17898351,-1.3639094,0.023518313
882,8.819999999999856,0.9492627,-0.38185155,1.1629947,0.34483343,-1.7721201,1.4636332
883,8.829999999999856,1.1933622,-0.38825434,0.9823134,0.40378192,-1.7458528,1.6106989
884,8.839999999999856,1.3803245,-0.38447365,0.8983451,0.31322116,-1.5589281,1.3524556
885,8.849999999999856,1.5606399,-0.26593015,0.88358814,0.07574729,-1.1965322,0.6435465
886,8.859999999999856,1.3995328,-0.21043912,1.0231085,-0.13561209,-1.0135782,-0.10354166
887,8.869999999999855,1.3995328,-0.21043912,1.0231085,-0.32696563,-0.818254,-0.9277516
888,8.879999999999855,1.2808673,-0.16927817,1.1681169,-0.31581733,-0.59941155,-1.4411838
889,8.889999999999855,1.1587871,-0.14122775,1.1733612,-0.13607024,-0.581391,-1.6088663
890,8.899999999999855,1.089271,-0.1515942,1.1109184,0.10399981,-0.77274454,-1.582141
891,8.909999999999854,0.99536294,-0.14866722,0.9978021,0.3828598,-1.1085677,-1.2719742
892,8.919999999999854,0.96530026,-0.11305538,0.9088945,0.48273626,-1.2270756,-1.0273226
893,8.929999999999854,0.98828936,-0.07402871,0.725896,0.4841107,-1.1281154,-0.9665415
894,8.939999999999854,0.96944684,-0.043417167,0.59521765,0.344528,-0.8242099,-1.1681271
895,8.949999999999854,0.92926157,-0.037563168,0.51533496,0.18692477,-0.5216789,-1.4101825
896,8.959999999999853,0.82992643,-0.036953375,0.5996082,-0.019242255,-0.22815818,-1.7368426
897,8.969999999999853,0.71870047,0.00798827,0.8303533,-0.10476339,-0.16783522,-1.8587102
898,8.979999999999853,0.5886929,0.042807378,0.9928628,0.03970624,-0.18600847,-1.6070337
899,8.989999999999853,0.55509335,0.01762298,0.9577388,0.36987892,-0.31138855,-1.144456
900,8.999999999999853,0.58972955,-0.005366167,0.86968493,0.68600166,-0.4552473,-0.75762564
901,9.009999999999852,0.69424784,-0.117140986,0.61723113,1.2359331,-0.8668178,-0.00015271631
902,9.019999999999852,0.77699655,-0.19330397,0.42508578,1.3199271,-1.2084441,0.52534413
903,9.029999999999852,0.8258409,-0.15446024,0.29544407,1.0253373,-1.3574953,0.83001316
904,9.039999999999852,0.82681656,-0.12769037,0.275138,0.6608035,-1.2962561,0.86284715
905,9.049999999999851,0.82681656,-0.12769037,0.275138,0.30650163,-0.9789116,0.7199047
906,9.059999999999851,0.7883387,-0.080065645,0.29904184,-0.24785857,0.061086524,-0.11484267
907,9.069999999999851,0.7579101,-0.06872352,0.4106947,-0.24785857,0.061086524,-0.11484267
908,9.07999999999985,0.68973535,0.008963938,0.6010107,-0.24678956,0.4841107,-0.6301075
909,9.08999999999985,0.6126577,0.090737,0.7098585,-0.24678956,0.4841107,-0.6301075
910,9.09999999999985,0.7444947,-0.0056710625,0.6451596,0.4989242,0.18616119,-0.39568797
911,9.10999999999985,0.837366,-0.021708583,0.47813767,0.83276206,-0.18493946,-0.24770586
912,9.11999999999985,0.8585867,-0.011403104,0.3017859,0.9082039,-0.5138904,-0.13698652
913,9.12999999999985,0.81620616,-0.029513916,0.20952442,0.8167268,-0.8352055,-0.009010263
914,9.13999999999985,0.81620616,-0.029513916,0.20952442,0.8167268,-0.8352055,-0.009010263
915,9.14999999999985,0.7401651,-0.046527103,0.2177566,0.7284568,-1.0297661,0.062155537
916,9.15999999999985,0.7401651,-0.046527103,0.2177566,0.7284568,-1.0297661,0.062155537
917,9.169999999999849,0.7401651,-0.046527103,0.2177566,0.7284568,-1.0297661,0.062155537
918,9.179999999999849,0.5643012,-0.041343875,0.20421924,0.43188173,-0.6189592,0.16142114
919,9.189999999999849,0.59472984,0.012134855,0.10445731,0.15012014,-0.081397794,0.086437434
920,9.199999999999848,0.6538186,0.00079272914,0.095920235,-0.029626964,0.27382034,-0.017715093
921,9.209999999999848,0.7247374,0.037929043,0.1507405,-0.1385137,0.34009922,-0.110413894
922,9.219999999999848,0.7741915,0.1334834,0.21928109,-0.18799378,0.26526824,-0.15317446
923,9.229999999999848,0.8222431,0.1451914,0.27952853,-0.100792766,0.09850202,-0.18020524
924,9.239999999999847,0.8229748,0.104945146,0.32928753,0.11713341,-0.14920384,-0.23396139
925,9.249999999999847,0.72656673,0.10903075,0.27074748,0.4456262,-0.49128836,-0.24770586
926,9.259999999999847,0.6085111,0.09781059,0.1887915,0.6525568,-0.77656245,-0.08368854
927,9.269999999999847,0.55777645,0.054515377,0.16494864,0.70295316,-0.956615,0.12660182
928,9.279999999999847,0.5109445,0.043356188,0.12951976,0.64553183,-1.0589349,0.45448375
929,9.289999999999846,0.51228595,0.064637914,0.07518731,0.5841399,-1.0115929,0.6055202
930,9.299999999999846,0.5635085,0.06043036,0.029452939,0.48670688,-0.8752172,0.76342887
931,9.309999999999846,0.70040673,0.036953375,-0.100432694,0.28206703,-0.5862779,0.600786
932,9.319999999999846,0.7329696,0.09439575,-0.02774552,0.17241672,-0.45799622,0.33765575
933,9.329999999999846,0.7329696,0.09439575,-0.02774552,0.17241672,-0.45799622,0.33765575
934,9.339999999999845,0.731811,0.13061738,0.021037813,0.1788308,-0.3837761,0.17715092
935,9.349999999999845,0.72028595,0.04183171,0.007866313,0.46715918,-0.23243423,-0.28771752
936,9.359999999999845,0.6449767,0.03286777,-0.016342416,0.53038377,-0.28710666,-0.3397938
937,9.369999999999845,0.6449767,0.03286777,-0.016342416,0.538325,-0.30390546,-0.21853705
938,9.379999999999844,0.5543006,0.006524771,-0.047929626,0.538325,-0.30390546,-0.21853705
939,9.389999999999844,0.6218046,-0.03725827,-0.14464259,0.63300914,-0.21991149,0.03863723
940,9.399999999999844,0.6685756,-0.036465544,-0.1378739,0.7180721,-0.16325374,0.069485925
941,9.409999999999844,0.6685756,-0.036465544,-0.1378739,0.7180721,-0.16325374,0.069485925
942,9.419999999999844,0.7695571,-0.00798827,-0.119641125,0.6792821,-0.06490443,-0.1244638
943,9.429999999999843,0.7686424,-0.000365875,-0.029635875,0.6302602,-0.124005646,-0.2565634
944,9.439999999999843,0.7181517,-0.0014025208,0.04835648,0.61422503,-0.22067507,-0.31871894
945,9.449999999999843,0.68339354,-0.012256813,0.07543123,0.635758,-0.33643404,-0.27763826
946,9.459999999999843,0.67296606,-0.023781875,-0.0020123124,0.6398814,-0.49113566,-0.15347989
947,9.469999999999843,0.67949086,0.0071345624,-0.08567573,0.5896377,-0.54626626,-0.07651087
948,9.479999999999842,0.661563,0.046405144,-0.12336086,0.5039638,-0.44303003,-0.0346666
949,9.489999999999842,0.71412706,0.061345045,-0.12012896,0.52580225,0.28328875,-0.10476339
950,9.499999999999842,0.81218153,0.07896802,-0.14421573,0.52580225,0.28328875,-0.10476339
951,9.509999999999842,0.8979792,0.0807974,-0.1925722,0.6078109,0.5873469,-0.28160888
952,9.519999999999841,0.94029874,0.06823569,-0.22952558,0.7469355,0.7425067,-0.81107634
953,9.529999999999841,0.88084406,0.16891229,-0.19043794,0.7469355,0.7425067,-0.81107634
954,9.539999999999841,0.88084406,0.16891229,-0.19043794,0.90285885,0.0842994,-0.84421575
955,9.54999999999984,0.83017033,0.07207738,-0.181474,1.0118983,-0.4934264,-0.7322747
956,9.55999999999984,0.83017033,0.07207738,-0.181474,1.0118983,-0.4934264,-0.7322747
957,9.56999999999984,0.73394525,0.13543473,-0.3001395,1.070236,-1.0903945,-0.28160888
958,9.57999999999984,0.68607664,0.12189735,-0.33117786,0.9773844,-1.2211196,0.04734206
959,9.58999999999984,0.65003794,0.12506826,-0.33788556,0.9014844,-1.162782,0.18860464
960,9.59999999999984,0.6680878,0.17446141,-0.31446958,0.7693848,-0.84238315,0.35521814
961,9.60999999999984,0.6868694,0.23239161,-0.22873287,0.7602218,-0.6104071,0.36896262
962,9.61999999999984,0.70071167,0.24098967,-0.15555786,0.9166033,-0.25793785,0.37216964
963,9.62999999999984,0.72784734,0.22568391,-0.1273245,1.1302534,0.056963183,0.30863968
964,9.639999999999839,0.73455507,0.2534294,-0.13397123,1.1302534,0.056963183,0.30863968
965,9.649999999999839,0.73455507,0.2534294,-0.13397123,1.1302534,0.056963183,0.30863968
966,9.659999999999838,0.78449696,0.16775368,-0.3521547,1.8736764,0.93492925,-0.18463401
967,9.669999999999838,0.7366893,0.17232713,-0.34928867,1.9911152,1.0367911,-0.28695396
968,9.679999999999838,0.66449,0.13238578,-0.37050945,2.191479,1.1172725,-0.30085114
969,9.689999999999838,0.56234986,0.05256404,-0.4441113,2.362674,1.2162327,-0.18020524
970,9.699999999999838,0.5864976,-0.055430062,-0.6099746,2.4506385,1.3965907,0.031306844
971,9.709999999999837,0.8396832,-0.09201756,-0.90297955,2.3248005,1.4630222,0.11209377
972,9.719999999999837,1.0459757,-0.11427496,-1.0960395,1.4866933,1.157437,0.11789699
973,9.729999999999837,1.0459757,-0.11427496,-1.0960395,1.4866933,1.157437,0.11789699
974,9.739999999999837,1.1556162,0.016281437,-0.8738925,0.74479747,0.77411896,-0.08460484
975,9.749999999999837,1.109638,0.031770147,-0.6737588,0.14156802,0.30711251,-0.41798455
976,9.759999999999836,1.0864658,0.011586042,-0.53240913,0.30833423,0.30451632,-0.43035457
977,9.769999999999836,1.1159188,-0.019574312,-0.4352693,0.30833423,0.30451632,-0.43035457
978,9.779999999999836,1.1159188,-0.019574312,-0.4352693,0.9427178,0.6563747,-0.45356745
979,9.789999999999836,1.3000759,0.01841571,-0.49673632,1.0874928,1.0987939,-0.6478226
980,9.799999999999836,1.3000759,0.01841571,-0.49673632,1.0874928,1.0987939,-0.6478226
981,9.809999999999835,1.434108,0.007866313,-0.53911686,0.9987647,2.0503693,-1.3739886
982,9.819999999999835,1.4334372,-0.018171793,-0.6070476,0.8037459,2.324495,-1.6982054
983,9.829999999999835,1.4544141,-0.009146876,-0.7102244,0.49098295,2.2809708,-1.781894
984,9.839999999999835,1.4111799,0.027196707,-0.70235807,0.051618114,2.0207422,-1.7176003
985,9.849999999999834,1.258488,0.11238461,-0.4437454,-0.4259258,1.4480561,-1.4355333
986,9.859999999999834,1.1291512,0.15135029,-0.20086539,-0.5707009,1.0230466,-1.0334313
987,9.869999999999834,1.0882952,0.16372907,0.078785084,-0.3828598,0.6760751,-0.45952338
988,9.879999999999834,1.1670192,0.13720313,0.17098558,0.0983493,0.5224425,-0.00076358154
989,9.889999999999834,1.2929413,0.12640981,0.06372323,0.4560109,0.5309946,0.1947133
990,9.899999999999833,1.402033,0.15147226,-0.09140777,0.6151413,0.60154957,0.13179417
991,9.909999999999833,1.3685554,0.12848312,-0.3434347,0.4717407,0.66966105,-0.17638734
992,9.919999999999833,1.3685554,0.12848312,-0.3434347,0.19639318,0.6944011,-0.45234573
993,9.929999999999833,0.97420317,0.10665256,-0.32904357,-0.72692966,1.2153164,-0.7612908
994,9.939999999999833,0.8180965,0.06695513,-0.24141651,-0.72692966,1.2153164,-0.7612908
995,9.949999999999832,0.5057612,0.17153439,0.13372731,-1.4607315,1.6490307,-0.69913524
996,9.959999999999832,0.5057612,0.17153439,0.13372731,-1.4607315,1.6490307,-0.69913524
997,9.969999999999832,0.65113556,0.15665549,0.37611952,-1.3979651,1.8017471,0.71975195
998,9.979999999999832,1.1251266,0.1460451,0.26062497,-0.95386606,1.451874,1.4738652
999,9.989999999999831,1.3858736,0.16970502,0.14891112,-0.7502952,1.1908818,1.5656476
1000,9.999999999999831,1.6600358,0.18025441,0.0219525,-0.50488013,0.7293731,1.2779301
