id,timestamp,acc_x,acc_y,acc_z,gyro_x,gyro_y,gyro_z
0,0,0.56302065,-0.6337565,0.1255561,-0.32253686,0.048716504,0.29352075
1,0.01,0.56302065,-0.6337565,0.1255561,-0.32253686,0.048716504,0.29352075
2,0.02,0.64400095,-0.64589137,0.12653178,-0.055283304,-0.14004086,0.2959642
3,0.03,0.7457752,-0.66778284,0.10104248,-0.055283304,-0.14004086,0.2959642
4,0.04,0.7676058,-0.68723524,0.077077664,0.6407976,-0.60246587,0.0050396384
5,0.05,0.661563,-0.7207128,0.022379354,0.9921979,-0.47250426,-0.33093625
6,0.060000000000000005,0.5667404,-0.75461715,-0.025916148,1.098183,-0.2780964,-0.48640144
7,0.07,0.5039318,-0.78047234,-0.069638215,1.1232284,-0.12797627,-0.57742035
8,0.08,0.44039157,-0.81712085,-0.12781233,1.0978775,0.028099801,-0.63453627
9,0.09,0.4059383,-0.8394393,-0.178547,1.016327,0.12644911,-0.6366743
10,0.09999999999999999,0.38563228,-0.85194,-0.24098967,0.91553426,0.15149458,-0.59696805
11,0.10999999999999999,0.37831476,-0.8482812,-0.3123353,0.6397286,0.052381694,-0.43692136
12,0.11999999999999998,0.386364,-0.82980454,-0.3255068,0.54153204,0.01038471,-0.3724751
13,0.12999999999999998,0.39294976,-0.81218153,-0.31593305,0.3390302,-0.038331795,-0.23777929
14,0.13999999999999999,0.43215933,-0.7743745,-0.30916438,0.09162979,-0.005497787,-0.07803804
15,0.15,0.47386914,-0.7443727,-0.3052617,-0.095753126,0.07651087,0.019547688
16,0.16,0.51039565,-0.7211396,-0.2642227,-0.3031419,0.21930063,0.0936151
17,0.17,0.51039565,-0.7211396,-0.2642227,-0.3031419,0.21930063,0.0936151
18,0.18000000000000002,0.51039565,-0.7211396,-0.2642227,-0.3031419,0.21930063,0.0936151
19,0.19000000000000003,0.6141212,-0.73815286,-0.14897211,-0.8918633,0.46807548,-0.08368854
20,0.20000000000000004,0.66955125,-0.766935,-0.116836086,-0.8918633,0.46807548,-0.08368854
21,0.21000000000000005,0.7572393,-0.8357805,-0.020123126,-0.8063421,0.35460728,-0.31749722
22,0.22000000000000006,0.7759599,-0.85017157,0.016342416,-0.59238654,0.32895094,-0.43111816
23,0.23000000000000007,0.77638674,-0.8466957,0.021159772,-0.3820962,0.2959642,-0.52015173
24,0.24000000000000007,0.77059376,-0.82779217,0.002866021,-0.13240504,0.23151793,-0.61621034
25,0.25000000000000006,0.7341892,-0.80425423,-0.023172084,-0.13240504,0.23151793,-0.61621034
26,0.26000000000000006,0.6982115,-0.77583796,-0.05408852,0.14034629,0.043829583,-0.7165449
27,0.2700000000000001,0.6757711,-0.75906867,-0.11201873,0.20158553,0.04550946,-0.7075347
28,0.2800000000000001,0.6510746,-0.75004375,-0.13427612,0.20555615,0.12614368,-0.66996646
29,0.2900000000000001,0.62826836,-0.74486053,-0.14824036,0.1872302,0.23105977,-0.59712076
30,0.3000000000000001,0.6241218,-0.7454703,-0.16726585,0.13958271,0.3042109,-0.5145013
31,0.3100000000000001,0.62564623,-0.75858086,-0.16610725,0.054061573,0.33444872,-0.36713
32,0.3200000000000001,0.64845246,-0.7608371,-0.155131,0.023060163,0.31963524,-0.29016098
33,0.3300000000000001,0.6730271,-0.76205665,-0.12854409,0.020463986,0.2648101,-0.20555615
34,0.34000000000000014,0.70900476,-0.7540684,-0.12390967,0.056046885,0.23350324,-0.15500705
35,0.35000000000000014,0.7213226,-0.7476656,-0.14043503,0.091477074,0.20082195,-0.1020145
36,0.36000000000000015,0.73193294,-0.7130294,-0.14756958,0.08659015,0.13988814,-0.027183503
37,0.37000000000000016,0.75431234,-0.63442725,-0.14202048,-0.0032070426,0.12965615,0.04932737
38,0.38000000000000017,0.7618737,-0.61387724,-0.13098325,-0.06704246,0.1572978,0.034055736
39,0.3900000000000002,0.7618737,-0.61387724,-0.13098325,-0.06704246,0.1572978,0.034055736
40,0.4000000000000002,0.8263897,-0.5961933,-0.06085721,-0.27885997,0.1826487,-0.028405234
41,0.4100000000000002,0.8263897,-0.5961933,-0.06085721,-0.27885997,0.1826487,-0.028405234
42,0.4200000000000002,0.9077969,-0.5807656,0.03140427,-0.3115413,0.2640465,-0.18921551
43,0.4300000000000002,0.91584617,-0.5704601,0.046466127,-0.25702155,0.24113905,-0.25366178
44,0.4400000000000002,0.91584617,-0.5704601,0.046466127,-0.25702155,0.24113905,-0.25366178
45,0.45000000000000023,0.880966,-0.5533859,-0.034514207,-0.056963183,-0.111635625,-0.28893927
46,0.46000000000000024,0.8376099,-0.5683868,-0.07957781,-0.02397646,-0.2848159,-0.25366178
47,0.47000000000000025,0.73046947,-0.61692625,-0.10982348,-0.02397646,-0.2848159,-0.25366178
48,0.48000000000000026,0.7283352,-0.6442449,-0.123604774,-0.013439035,-0.28053987,0.041080687
49,0.49000000000000027,0.7515073,-0.6650998,-0.1372641,-0.024587326,-0.17913623,0.13240504
50,0.5000000000000002,0.76541054,-0.7093707,-0.13708118,-0.052381694,-0.10842858,0.16982053
51,0.5100000000000002,0.76565444,-0.7265058,-0.15147226,-0.07895433,-0.12705997,0.1441642
52,0.5200000000000002,0.7499218,-0.73187196,-0.13354437,-0.086132,-0.13683382,0.12690726
53,0.5300000000000002,0.70918775,-0.73303056,-0.1042134,-0.0693332,-0.09040806,0.114689946
54,0.5400000000000003,0.67979574,-0.725835,-0.0962861,-0.060322944,-0.030390546,0.16707164
55,0.5500000000000003,0.68516195,-0.71559054,-0.10122541,-0.060322944,-0.030390546,0.16707164
56,0.5600000000000003,0.7098585,-0.7018092,-0.09287128,-0.14370605,0.0056505036,0.15409076
57,0.5700000000000003,0.70699245,-0.6789421,-0.108298995,-0.17119499,0.054367006,0.16355917
58,0.5800000000000003,0.70260197,-0.65906286,-0.12561709,-0.17394388,0.08597928,0.18906279
59,0.5900000000000003,0.70260197,-0.65906286,-0.12561709,-0.17394388,0.08597928,0.18906279
60,0.6000000000000003,0.71376115,-0.6638192,-0.11573846,-0.13607024,0.07040222,0.2237294
61,0.6100000000000003,0.7260789,-0.7012604,-0.10732334,0.0030543262,-0.071318515,0.27656925
62,0.6200000000000003,0.7276644,-0.72803026,-0.10262794,0.067500606,-0.17104226,0.2919936
63,0.6300000000000003,0.72284704,-0.74120176,-0.10006681,0.09972375,-0.22693644,0.29000828
64,0.6400000000000003,0.7093097,-0.7466899,-0.10939662,0.11835514,-0.23915374,0.26450464
65,0.6500000000000004,0.6977236,-0.7419335,-0.122202255,0.11835514,-0.23915374,0.26450464
66,0.6600000000000004,0.69540644,-0.7332135,-0.13891055,0.11835514,-0.23915374,0.26450464
67,0.6700000000000004,0.69924814,-0.73077434,-0.13744704,0.07391469,-0.107665,0.15836681
68,0.6800000000000004,0.7050411,-0.73315257,-0.13006857,0.048258353,-0.079870634,0.10552697
69,0.6900000000000004,0.72016394,-0.74711674,-0.122446164,0.027641652,-0.07880162,0.06994407
70,0.7000000000000004,0.7358966,-0.76845944,-0.12055582,0.008399397,-0.07666359,0.014813482
71,0.7100000000000004,0.7272375,-0.77638674,-0.13128816,0.008399397,-0.07666359,0.014813482
72,0.7200000000000004,0.70784616,-0.76772773,-0.14177656,0.00992656,0.014660766,-0.15317446
73,0.7300000000000004,0.64436686,-0.7267497,-0.1595215,0.00992656,0.014660766,-0.15317446
74,0.7400000000000004,0.6126577,-0.72303,-0.15452121,-0.056963183,0.17760907,-0.24480425
75,0.7500000000000004,0.6345492,-0.73931146,-0.095615335,-0.124311075,0.14553864,-0.2096795
76,0.7600000000000005,0.6345492,-0.73931146,-0.095615335,-0.17806722,0.10247265,-0.18906279
77,0.7700000000000005,0.67924696,-0.7394943,-0.080065645,-0.08155051,0.117744274,-0.1591304
78,0.7800000000000005,0.67924696,-0.7394943,-0.080065645,-0.08155051,0.117744274,-0.1591304
79,0.7900000000000005,0.7038825,-0.7413237,-0.10073759,-0.005955936,0.123242065,-0.1133155
80,0.8000000000000005,0.7784601,-0.74345803,-0.15110639,0.031612277,0.13087788,-0.055741455
81,0.8100000000000005,0.81083995,-0.740409,-0.17470531,0.06811147,0.13118331,0.006872234
82,0.8200000000000005,0.8281581,-0.74187255,-0.20086539,0.09132435,0.13622294,-0.0027488936
83,0.8300000000000005,0.83260953,-0.73504287,-0.21062206,0.087964594,0.1337795,-0.036957346
84,0.8400000000000005,0.8174257,-0.71467584,-0.2183664,0.087964594,0.1337795,-0.036957346
85,0.8500000000000005,0.78748494,-0.6899793,-0.21312219,-0.053450707,-0.020005837,-0.16814066
86,0.8600000000000005,0.78748494,-0.6899793,-0.21312219,-0.19043724,-0.14782938,-0.2406809
87,0.8700000000000006,0.6651608,-0.63058555,-0.14830133,-0.28328875,-0.18891008,-0.24358252
88,0.8800000000000006,0.6651608,-0.63058555,-0.14830133,-0.28328875,-0.18891008,-0.24358252
89,0.8900000000000006,0.59137595,-0.60162044,-0.09726177,-0.36713,-0.15134187,-0.18799378
90,0.9000000000000006,0.51509106,-0.5957055,-0.07713865,-0.45982882,0.04016439,0.11530081
91,0.9100000000000006,0.52082306,-0.60973066,-0.055430062,-0.5288566,0.09621128,0.3129157
92,0.9200000000000006,0.5836926,-0.649733,-0.030428605,-0.50717086,0.12873985,0.75808376
93,0.9300000000000006,0.6562578,-0.67455155,-0.012378771,-0.50717086,0.12873985,0.75808376
94,0.9400000000000006,0.7322988,-0.6799177,-0.007622396,-0.33964106,0.0580322,0.8903361
95,0.9500000000000006,0.80943745,-0.69266236,-0.015000875,-0.14660765,-0.060322944,0.91904676
96,0.9600000000000006,0.8566963,-0.70510215,-0.049454104,0.111941054,-0.21502456,0.89675015
97,0.9700000000000006,0.85468405,-0.71504176,-0.08738314,0.49037206,-0.31642818,0.8396343
98,0.9800000000000006,0.85468405,-0.71504176,-0.08738314,0.49037206,-0.31642818,0.8396343
99,0.9900000000000007,0.85474503,-0.72754246,-0.18708408,0.5467244,-0.1366811,0.81000733
100,1.0000000000000007,0.8512692,-0.7374211,-0.2215983,0.40653083,-0.0106901415,0.7449502
101,1.0100000000000007,0.8345609,-0.74687284,-0.25385627,0.2264783,0.047800206,0.6640105
102,1.0200000000000007,0.7954732,-0.7373601,-0.25141713,-0.018020526,0.087659165,0.5363397
103,1.0300000000000007,0.746446,-0.7293108,-0.22568391,-0.19379699,0.07284568,0.43860126
104,1.0400000000000007,0.68504,-0.7212616,-0.1806203,-0.35094208,0.0290161,0.36193767
105,1.0500000000000007,0.606011,-0.734677,-0.117384896,-0.42195517,0.02977968,0.34681875
106,1.0600000000000007,0.606011,-0.734677,-0.117384896,-0.43111816,0.09330966,0.366061
107,1.0700000000000007,0.46362463,-0.793217,-0.025977125,-0.4008803,0.24373524,0.43661594
108,1.0800000000000007,0.43362287,-0.8387685,-0.023781875,-0.34468073,0.38453966,0.4877759
109,1.0900000000000007,0.4101459,-0.89060074,-0.032623854,-0.269697,0.4717407,0.5355761
110,1.1000000000000008,0.40868238,-0.91602904,-0.06744295,-0.23777929,0.4596761,0.54565537
111,1.1100000000000008,0.43728164,-0.9253589,-0.14208147,-0.21930063,0.29138273,0.5305365
112,1.1200000000000008,0.4672224,-0.9332252,-0.21086596,-0.24877487,0.16661349,0.5015204
113,1.1300000000000008,0.4672224,-0.9332252,-0.21086596,-0.24877487,0.16661349,0.5015204
114,1.1400000000000008,0.4672224,-0.9332252,-0.21086596,-0.24877487,0.16661349,0.5015204
115,1.1500000000000008,0.53131145,-0.94944566,-0.3738023,-0.73761976,0.17088956,0.5216789
116,1.1600000000000008,0.56143516,-0.930908,-0.4238662,-1.1870639,0.15378532,0.71578133
117,1.1700000000000008,0.5864367,-0.91895604,-0.24495333,-1.4679092,0.12522738,0.82802784
118,1.1800000000000008,0.59491277,-0.88785666,-0.13415417,-1.7090483,0.30100384,0.9786061
119,1.1900000000000008,0.556313,-0.8213894,-0.01841571,-1.6575829,0.37583485,1.0740538
120,1.2000000000000008,0.556313,-0.8213894,-0.01841571,-1.4711162,0.3932445,1.2342533
121,1.2100000000000009,0.5538738,-0.6655876,0.08835881,-1.2118039,0.3839288,1.3055718
122,1.2200000000000009,0.5538738,-0.6655876,0.08835881,-1.2118039,0.3839288,1.3055718
123,1.2300000000000009,0.6027791,-0.5800948,0.070735835,-1.2118039,0.3839288,1.3055718
124,1.2400000000000009,0.70717543,-0.50362694,-0.16641214,0.14019357,0.0076358155,1.0221303
125,1.2500000000000009,0.71437097,-0.5399705,-0.25269768,0.37751472,-0.366061,0.72784597
126,1.260000000000001,0.63826895,-0.64320827,-0.23074517,0.5123632,-0.72356987,0.3399465
127,1.270000000000001,0.5774727,-0.76041025,-0.17586392,0.54565537,-0.87995136,0.11071932
128,1.280000000000001,0.52545744,-0.90279657,-0.105920814,0.5381723,-0.93019503,-0.017562376
129,1.290000000000001,0.5119811,-0.9860941,-0.073845774,0.5206099,-0.8741482,-0.033750303
130,1.300000000000001,0.5290553,-1.0339627,-0.14567922,0.47815478,-0.75732017,-0.036957346
131,1.310000000000001,0.4818574,-0.97902054,-0.23501371,0.3109304,-0.6107125,-0.124311075
132,1.320000000000001,0.34331274,-0.87559986,-0.23672113,0.25411993,-0.27091873,-0.28512135
133,1.330000000000001,0.2359284,-0.84291506,-0.18751094,0.25411993,-0.27091873,-0.28512135
134,1.340000000000001,0.14915505,-0.9071871,-0.14909407,0.27458394,-0.34406984,-0.33108896
135,1.350000000000001,0.14915505,-0.9071871,-0.14909407,0.269697,-0.48930305,-0.34773505
136,1.360000000000001,0.23958716,-0.96590996,-0.23812364,0.21578814,-0.35170567,-0.32528573
137,1.370000000000001,0.31977475,-0.93499357,-0.33026317,0.21578814,-0.35170567,-0.32528573
138,1.380000000000001,0.35313037,-0.87828296,-0.34136137,0.07040222,-0.11575896,-0.2733622
139,1.390000000000001,0.3986208,-0.7866313,-0.25916147,-0.21502456,0.008246681,-0.23289238
140,1.400000000000001,0.3986208,-0.7866313,-0.25916147,-0.2134974,-0.022296581,-0.23762658
141,1.410000000000001,0.44496498,-0.7456533,-0.18952326,-0.2134974,-0.022296581,-0.23762658
142,1.420000000000001,0.4735032,-0.74053097,-0.17275399,-0.12980886,-0.070554934,-0.25289822
143,1.430000000000001,0.51832294,-0.7441288,-0.16494864,-0.046120327,-0.09941832,-0.2753475
144,1.440000000000001,0.5543006,-0.74778754,-0.15817997,0.049938235,-0.14156802,-0.31505376
145,1.450000000000001,0.573753,-0.7442508,-0.15610667,0.14752395,-0.19349156,-0.3643811
146,1.460000000000001,0.5732652,-0.73888457,-0.15567982,0.22617286,-0.21380283,-0.39553526
147,1.470000000000001,0.5644232,-0.7326037,-0.15196009,0.30466905,-0.2182316,-0.41218132
148,1.480000000000001,0.5570447,-0.72729856,-0.15256988,0.3894266,-0.23732115,-0.41645738
149,1.490000000000001,0.54125106,-0.7233959,-0.1308613,0.45570546,-0.25625798,-0.4109596
150,1.500000000000001,0.5308846,-0.72052985,-0.12171442,0.5331327,-0.29245174,-0.408058
151,1.5100000000000011,0.52710396,-0.7254692,-0.12951976,0.5873469,-0.33857206,-0.398895
152,1.5200000000000011,0.5178351,-0.73278666,-0.12659276,0.66706485,-0.36361754,-0.376293
153,1.5300000000000011,0.5105786,-0.73870164,-0.12805626,0.7461719,-0.3361286,-0.34895676
154,1.5400000000000011,0.5146032,-0.7460191,-0.13720313,0.8533788,-0.27320948,-0.30940324
155,1.5500000000000012,0.5236281,-0.7562637,-0.15500905,0.9363037,-0.24327709,-0.2845105
156,1.5600000000000012,0.55009305,-0.8127304,-0.18714507,0.9877691,-0.25030205,-0.28053987
157,1.5700000000000012,0.55009305,-0.8127304,-0.18714507,1.0392345,-0.37583485,-0.33108896
158,1.5800000000000012,0.5549104,-0.84053683,-0.20970736,1.0106765,-0.4456262,-0.3811799
159,1.5900000000000012,0.5549714,-0.84498835,-0.21354906,1.0106765,-0.4456262,-0.3811799
160,1.6000000000000012,0.5520444,-0.8479153,-0.21300024,1.0106765,-0.4456262,-0.3811799
161,1.6100000000000012,0.5520444,-0.8479153,-0.21300024,1.0106765,-0.4456262,-0.3811799
162,1.6200000000000012,0.5520444,-0.8479153,-0.21300024,1.0106765,-0.4456262,-0.3811799
163,1.6300000000000012,0.5284454,-0.8982231,-0.21263437,0.41340306,0.05207626,-0.5007568
164,1.6400000000000012,0.5284454,-0.8982231,-0.21263437,0.41340306,0.05207626,-0.5007568
165,1.6500000000000012,0.5371045,-0.90737003,-0.19245026,0.16310102,0.31398472,-0.5497787
166,1.6600000000000013,0.52033526,-0.907431,-0.17702252,0.059253927,0.463494,-0.592692
167,1.6700000000000013,0.50021213,-0.8924301,-0.16671704,0.026572637,0.5852089,-0.61666846
168,1.6800000000000013,0.50021213,-0.8924301,-0.16671704,0.019700404,0.69027776,-0.61101794
169,1.6900000000000013,0.45216054,-0.8386465,-0.17659567,0.016646078,0.7341073,-0.5842926
170,1.7000000000000013,0.4379524,-0.8104741,-0.18537667,-0.02443461,0.72311175,-0.4560109
171,1.7100000000000013,0.43953782,-0.80370545,-0.19665782,-0.04520403,0.690125,-0.41325033
172,1.7200000000000013,0.4985047,-0.8067544,-0.19409668,-0.11224649,0.56046885,-0.2968805
173,1.7300000000000013,0.4985047,-0.8067544,-0.19409668,-0.17577648,0.4552473,-0.19410244
174,1.7400000000000013,0.58289987,-0.8041323,-0.15769213,-0.23579398,0.3830125,-0.09636399
175,1.7500000000000013,0.7235788,-0.7782771,-0.10445731,-0.25289822,0.3707952,-0.08536842
176,1.7600000000000013,0.9217001,-0.74955595,-0.043905,-0.18142697,0.4709771,-0.29703322
177,1.7700000000000014,1.0746359,-0.70626074,-0.057015523,-0.02443461,0.5187773,-0.81489426
178,1.7800000000000014,1.0746359,-0.70626074,-0.057015523,-0.02443461,0.5187773,-0.81489426
179,1.7900000000000014,1.0746359,-0.70626074,-0.057015523,-0.02443461,0.5187773,-0.81489426
180,1.8000000000000014,0.9077969,-0.7207128,-0.13305654,-0.02443461,0.5187773,-0.81489426
181,1.8100000000000014,0.6680878,-0.737604,-0.083602436,-0.004428773,0.11453723,-0.96486163
182,1.8200000000000014,0.6839423,-0.73303056,-0.065491624,0.020616703,0.08231409,-0.59986967
183,1.8300000000000014,0.6839423,-0.73303056,-0.065491624,0.05085453,0.09605856,-0.5545129
184,1.8400000000000014,0.70418745,-0.75004375,-0.08165111,0.05085453,0.09605856,-0.5545129
185,1.8500000000000014,0.70418745,-0.75004375,-0.08165111,0.060170226,-0.063682705,-0.47433686
186,1.8600000000000014,0.7197371,-0.76205665,-0.06768687,0.05955936,-0.16126843,-0.4616614
187,1.8700000000000014,0.7094926,-0.7324818,-0.086163566,0.048716504,-0.1966986,-0.43951756
188,1.8800000000000014,0.7094926,-0.7324818,-0.086163566,0.048716504,-0.1966986,-0.43951756
189,1.8900000000000015,0.68705225,-0.6805885,-0.1153116,-0.013286319,-0.11652254,-0.40607268
190,1.9000000000000015,0.6899183,-0.6669292,-0.11933623,-0.058490347,-0.0154243475,-0.35170567
191,1.9100000000000015,0.69949204,-0.6590018,-0.10518907,-0.089949906,0.043066,-0.2921463
192,1.9200000000000015,0.73187196,-0.6438181,-0.13336144,-0.16584991,-0.002443461,-0.24358252
193,1.9300000000000015,0.7256521,-0.70498013,-0.061954834,-0.20631973,-0.038026363,-0.20204368
194,1.9400000000000015,0.7256521,-0.70498013,-0.061954834,-0.2171626,-0.100334615,-0.13332134
195,1.9500000000000015,0.72309095,-0.7542513,-0.06774786,-0.20570888,-0.20631973,-0.0852157
196,1.9600000000000015,0.6946137,-0.7583979,-0.09183463,-0.113162786,-0.45341474,-0.07360926
197,1.9700000000000015,0.6946137,-0.7583979,-0.09183463,-0.113162786,-0.45341474,-0.07360926
198,1.9800000000000015,0.68247885,-0.70857793,-0.17543708,-0.019394971,-0.3578143,-0.11759156
199,1.9900000000000015,0.6746125,-0.6847961,-0.1884866,-0.019394971,-0.3578143,-0.11759156
200,2.0000000000000013,0.68723524,-0.68022263,-0.1770835,-0.06505715,0.05085453,-0.16600263
201,2.010000000000001,0.7118098,-0.6736979,-0.15507002,-0.08827003,0.18616119,-0.15088372
202,2.020000000000001,0.7399822,-0.6545504,-0.15799703,-0.09865474,0.23854288,-0.1253801
203,2.0300000000000007,0.7336404,-0.6466231,-0.11232363,-0.1226312,0.16157386,-0.1020145
204,2.0400000000000005,0.72754246,-0.6504648,-0.08604161,-0.099265605,0.09590584,-0.027030786
205,2.0500000000000003,0.74205554,-0.65814817,-0.07311402,-0.051159963,-0.042760566,0.0888809
206,2.06,0.755349,-0.67223436,-0.078663126,-0.0050396384,-0.19242255,0.16203201
207,2.07,0.74979985,-0.69376,-0.092078544,0.040317107,-0.3911065,0.19486602
208,2.0799999999999996,0.7091267,-0.70967555,-0.11421398,0.06963864,-0.52519137,0.18341228
209,2.0899999999999994,0.67723465,-0.717237,-0.1378739,0.06963864,-0.52519137,0.18341228
210,2.099999999999999,0.67723465,-0.717237,-0.1378739,0.06963864,-0.52519137,0.18341228
211,2.109999999999999,0.6518673,-0.725835,-0.17501022,0.05757405,-0.21044308,0.14523321
212,2.1199999999999988,0.67546624,-0.75297076,-0.17836407,0.025350908,0.1470658,0.17058411
213,2.1299999999999986,0.70991945,-0.7537025,-0.16531453,0.025350908,0.1470658,0.17058411
214,2.1399999999999983,0.7072364,-0.7145539,-0.11518965,0.025045475,0.19226983,0.1704314
215,2.149999999999998,0.70071167,-0.7121147,-0.09817646,0.04062254,0.05207626,0.19181168
216,2.159999999999998,0.69632107,-0.71943223,-0.08890763,0.04138612,-0.04932737,0.20082195
217,2.1699999999999977,0.69333315,-0.7213836,-0.084029295,0.022907447,-0.18371773,0.19150625
218,2.1799999999999975,0.6875401,-0.7218714,-0.08652944,-0.00580322,-0.26328292,0.16584991
219,2.1899999999999973,0.67010003,-0.7152246,-0.10579886,-0.04810564,-0.30390546,0.12904528
220,2.199999999999997,0.65766037,-0.70809007,-0.13330047,-0.08979719,-0.29443705,0.10797043
221,2.209999999999997,0.66186786,-0.71059024,-0.16000934,-0.08979719,-0.29443705,0.10797043
222,2.2199999999999966,0.67564917,-0.7188224,-0.17391258,-0.14828753,-0.16172658,0.111941054
223,2.2299999999999964,0.7069315,-0.7352258,-0.17336378,-0.16264287,-0.06658431,0.13103059
224,2.239999999999996,0.717237,-0.7424214,-0.17025384,-0.16187929,-0.016493361,0.14920384
225,2.249999999999996,0.728823,-0.7433361,-0.1589117,-0.14126259,-0.0053450707,0.16401732
226,2.259999999999996,0.7277254,-0.7379089,-0.152204,-0.07376198,-0.039095376,0.1695151
227,2.2699999999999956,0.7213226,-0.73162806,-0.14744763,0.02367103,-0.0983493,0.15806139
228,2.2799999999999954,0.7115659,-0.7292499,-0.14952092,0.14920384,-0.1731803,0.13836098
229,2.289999999999995,0.7004677,-0.7322988,-0.15738723,0.28970283,-0.25411993,0.11148291
230,2.299999999999995,0.68589365,-0.73284763,-0.16147284,0.3857614,-0.29016098,0.07315111
231,2.3099999999999947,0.67772245,-0.7461411,-0.16964404,0.41386122,-0.27046058,0.051159963
232,2.3199999999999945,0.67199045,-0.7519951,-0.17305888,0.4100433,-0.24251351,0.044898596
233,2.3299999999999943,0.6599165,-0.7565076,-0.18190086,0.30375275,-0.10644327,0.03268129
234,2.339999999999994,0.6570505,-0.76041025,-0.18623038,0.15225816,-0.017104227,0.054519724
235,2.349999999999994,0.6637582,-0.76132494,-0.17543708,0.01695151,0.02611449,0.08903361
236,2.3599999999999937,0.6881499,-0.7352258,-0.1414107,-0.17837265,0.055436023,0.14156802
237,2.3699999999999934,0.68406427,-0.71717596,-0.13634941,-0.21151209,0.043066,0.17073683
238,2.3799999999999932,0.66577053,-0.69632107,-0.1197021,-0.20082195,0.020005837,0.24174993
239,2.389999999999993,0.6690025,-0.6816251,-0.11451888,-0.15821409,-0.0015271631,0.31673363
240,2.399999999999993,0.673332,-0.67381984,-0.10921369,-0.08735373,-0.027794369,0.3846924
241,2.4099999999999926,0.67131966,-0.66162395,-0.110311314,0.04810564,-0.007330383,0.45142943
242,2.4199999999999924,0.6685146,-0.66412413,-0.12494631,0.04810564,-0.007330383,0.45142943
243,2.429999999999992,0.6685146,-0.66412413,-0.12494631,0.15409076,0.048258353,0.49235737
244,2.439999999999992,0.6685146,-0.66412413,-0.12494631,0.25121832,0.11133019,0.54641896
245,2.4499999999999917,0.70991945,-0.70065063,-0.19812131,0.28053987,0.09193522,0.5870415
246,2.4599999999999915,0.7077242,-0.7056509,-0.21617115,0.28053987,0.09193522,0.5870415
247,2.4699999999999913,0.7077242,-0.7056509,-0.21617115,0.12751812,-0.028710667,0.5181664
248,2.479999999999991,0.6501599,-0.70498013,-0.2157443,0.0010690142,0.019242255,0.50488013
249,2.489999999999991,0.62960994,-0.71290743,-0.20171909,0.0010690142,0.019242255,0.50488013
250,2.4999999999999907,0.62960994,-0.71290743,-0.20171909,-0.21594086,0.27687466,0.61743206
251,2.5099999999999905,0.6049743,-0.7659593,-0.1414107,-0.30665436,0.37659842,0.70341134
252,2.5199999999999902,0.61460906,-0.7945585,-0.11171384,-0.39828414,0.42378777,0.81138176
253,2.52999999999999,0.61985326,-0.8129743,-0.093359105,-0.4474588,0.3941608,0.8810204
254,2.53999999999999,0.6422936,-0.83956116,-0.077260606,-0.44532076,0.25030205,0.9097311
255,2.5499999999999896,0.6332077,-0.8396832,-0.09585925,-0.38988474,0.23839016,0.8746063
256,2.5599999999999894,0.6332077,-0.8396832,-0.09585925,-0.38988474,0.23839016,0.8746063
257,2.569999999999989,0.614548,-0.822426,-0.14305714,-0.38988474,0.23839016,0.8746063
258,2.579999999999989,0.614548,-0.822426,-0.14305714,-0.38988474,0.23839016,0.8746063
259,2.5899999999999888,0.61851174,-0.845964,-0.1855596,-0.37384954,0.33948836,0.7153232
260,2.5999999999999885,0.62442666,-0.89035684,-0.21178065,-0.40454552,0.29031372,0.59788436
261,2.6099999999999883,0.6267439,-0.9298713,-0.2239155,-0.4343252,0.27885997,0.46563202
262,2.619999999999988,0.5960104,-0.97981334,-0.24166043,-0.4343252,0.27885997,0.46563202
263,2.629999999999988,0.5838755,-0.9847526,-0.24464841,-0.44073927,0.39187005,0.14950927
264,2.6399999999999877,0.5838755,-0.9847526,-0.24464841,-0.44073927,0.39187005,0.14950927
265,2.6499999999999875,0.5342995,-1.001156,-0.25227082,-0.4353942,0.45769078,0.007330383
266,2.6599999999999873,0.34928867,-0.9618245,-0.24580702,-0.54901516,0.5716171,0.009773844
267,2.669999999999987,0.29282197,-0.930908,-0.22434235,-0.54901516,0.5716171,0.009773844
268,2.679999999999987,0.27349156,-0.8655993,-0.18049833,-0.84879726,0.420428,0.5590944
269,2.6899999999999866,0.3175795,-0.81303525,-0.13537374,-0.98440933,0.26389378,0.9062186
270,2.6999999999999864,0.4235003,-0.7693132,-0.07591906,-1.047023,0.15057829,1.2892311
271,2.709999999999986,0.6422326,-0.73077434,-0.03420931,-0.97692627,0.22357668,1.557401
272,2.719999999999986,0.6422326,-0.73077434,-0.03420931,-0.8559749,0.34895676,1.6554449
273,2.7299999999999858,0.82754827,-0.7045533,-0.11262852,-0.7302894,0.43264532,1.6363553
274,2.7399999999999856,0.83120704,-0.68613756,-0.15031365,-0.7302894,0.43264532,1.6363553
275,2.7499999999999853,0.73638445,-0.6940649,-0.1662902,0.084910266,0.19058995,0.40439278
276,2.759999999999985,0.5969251,-0.7168101,-0.14793546,0.25610524,-0.25579983,-0.008552114
277,2.769999999999985,0.45789257,-0.7618737,-0.10781116,0.25610524,-0.25579983,-0.008552114
278,2.7799999999999847,0.3439225,-0.86620915,-0.054576356,0.39584067,-0.8689558,-0.06765333
279,2.7899999999999845,0.3374587,-0.9242613,-0.057320416,0.3915646,-0.9430232,0.14065172
280,2.7999999999999843,0.3606918,-0.9320055,-0.086712375,0.3408628,-0.84299403,0.30024028
281,2.809999999999984,0.39325467,-0.89157635,-0.14635001,0.27320948,-0.66156703,0.32467487
282,2.819999999999984,0.36313096,-0.83389014,-0.19220634,0.2574797,-0.35445455,0.08231409
283,2.8299999999999836,0.36313096,-0.83389014,-0.19220634,0.2574797,-0.35445455,0.08231409
284,2.8399999999999834,0.21196358,-0.8451712,-0.23105007,0.24831672,-0.28695396,-0.3669773
285,2.849999999999983,0.21196358,-0.8451712,-0.22915971,0.24129178,-0.28695396,-0.3669773
286,2.859999999999983,0.14616705,-0.94450635,-0.21934207,0.1160644,-0.2218968,-0.4036292
287,2.869999999999983,0.21611017,-1.0305479,-0.29215118,-0.01450805,-0.123547494,-0.1956296
288,2.8799999999999826,0.32483602,-0.9358473,-0.304408,-0.15867224,-0.001985312,-0.0
289,2.8899999999999824,0.3971573,-0.8480983,-0.27696738,-0.23884831,0.019547688,0.069027774
290,2.899999999999982,0.49301654,-0.7455923,-0.11842154,-0.18005253,-0.043829583,-0.07223482
291,2.909999999999982,0.49301654,-0.7455923,-0.11842154,-0.18005253,-0.043829583,-0.07223482
292,2.9199999999999817,0.47905236,-0.755349,-0.08427321,0.10186178,-0.129198,-0.41263947
293,2.9299999999999815,0.47905236,-0.755349,-0.08427321,0.10186178,-0.129198,-0.41263947
294,2.9399999999999813,0.46088055,-0.7628494,-0.11165286,0.1797471,-0.1470658,-0.48915035
295,2.949999999999981,0.44148916,-0.7777893,-0.16824152,0.26984972,-0.17715092,-0.5703954
296,2.959999999999981,0.4293543,-0.79309505,-0.20763406,0.30115658,-0.23197608,-0.6079636
297,2.9699999999999807,0.42746398,-0.8009004,-0.21141478,0.29871312,-0.2490803,-0.60903263
298,2.9799999999999804,0.42496383,-0.8067544,-0.20263378,0.29520062,-0.26740626,-0.59315014
299,2.9899999999999802,0.418622,-0.8101692,-0.20214595,0.29733866,-0.26007587,-0.55878896
300,2.99999999999998,0.42203683,-0.80968136,-0.19775544,0.3080288,-0.19379699,-0.37675115
301,3.00999999999998,0.44862375,-0.79632694,-0.18836464,0.31597003,-0.17654006,-0.3034473
302,3.0199999999999796,0.47191778,-0.79029,-0.17946169,0.32788193,-0.17027868,-0.23487769
303,3.0299999999999794,0.49813882,-0.78766793,-0.17043677,0.35720345,-0.18829921,-0.20769419
304,3.039999999999979,0.5146032,-0.7904729,-0.16000934,0.35720345,-0.18829921,-0.20769419
305,3.049999999999979,0.5146032,-0.7904729,-0.16000934,0.49373183,-0.26923886,-0.19914207
306,3.0599999999999787,0.5146032,-0.7904729,-0.16000934,0.5983425,-0.3295618,-0.20677789
307,3.0699999999999785,0.5338726,-0.8116327,-0.12201932,0.74388117,-0.43371433,-0.23854288
308,3.0799999999999783,0.52612823,-0.81413287,-0.12695862,0.8046622,-0.5102252,-0.27565295
309,3.089999999999978,0.52612823,-0.81413287,-0.12695862,0.8394816,-0.54550266,-0.32055154
310,3.099999999999978,0.51692045,-0.81956,-0.12890996,0.8410087,-0.54305923,-0.3622431
311,3.1099999999999777,0.49576062,-0.846025,-0.1390325,0.81504697,-0.4822781,-0.39446622
312,3.1199999999999775,0.49576062,-0.846025,-0.1390325,0.75915277,-0.38988474,-0.39645153
313,3.1299999999999772,0.50021213,-0.85675734,-0.14275223,0.68875057,-0.32925636,-0.38362336
314,3.139999999999977,0.52124995,-0.8979792,-0.12695862,0.5841399,-0.2835942,-0.35995236
315,3.149999999999977,0.52124995,-0.8979792,-0.12695862,0.52122074,-0.24236079,-0.33735034
316,3.1599999999999766,0.5676551,-0.91962683,-0.119397216,0.4729624,-0.18035796,-0.32803464
317,3.1699999999999764,0.57204556,-0.9234686,-0.117384896,0.45662177,-0.08659015,-0.3640757
318,3.179999999999976,0.5813144,-0.9224928,-0.120189935,0.43768495,0.09132435,-0.49953505
319,3.189999999999976,0.59741294,-0.9097482,-0.13189794,0.4447099,0.21563543,-0.6235407
320,3.1999999999999758,0.5658867,-0.89249104,-0.15921661,0.41615194,0.34468073,-0.7134906
321,3.2099999999999755,0.5568008,-0.8843199,-0.17940071,0.35201108,0.42485678,-0.74479747
322,3.2199999999999753,0.5456416,-0.8707825,-0.1908648,0.26465738,0.49495357,-0.7725918
323,3.229999999999975,0.5302139,-0.8471226,-0.22397648,0.13347405,0.5502369,-0.8188649
324,3.239999999999975,0.54936135,-0.8144378,-0.25586858,-0.014049901,0.5320636,-0.9127854
325,3.2499999999999747,0.5893027,-0.7830335,-0.2748331,-0.14049901,0.4908302,-1.0259482
326,3.2599999999999745,0.62125576,-0.76382506,-0.26599112,-0.26450464,0.45081854,-1.1391109
327,3.2699999999999743,0.62125576,-0.76382506,-0.26599112,-0.35338554,0.43783766,-1.206917
328,3.279999999999974,0.64619625,-0.752361,-0.22836697,-0.35338554,0.43783766,-1.206917
329,3.289999999999974,0.7531537,-0.80333954,-0.07122366,-0.50793445,0.5002986,-1.2508993
330,3.2999999999999736,0.8171818,-0.83687806,-0.020001167,-0.36285394,0.34147367,-1.1575897
331,3.3099999999999734,0.8171818,-0.83687806,-0.020001167,-0.36285394,0.34147367,-1.1575897
332,3.319999999999973,0.79339993,-0.82779217,-0.03298973,-0.2452624,0.16539176,-1.1133019
333,3.329999999999973,0.6859547,-0.73888457,-0.065369666,0.021838432,-0.3391829,-0.88697636
334,3.3399999999999728,0.6859547,-0.73888457,-0.065369666,0.10980303,-0.40561453,-0.7698429
335,3.3499999999999726,0.6721733,-0.70248,-0.07378479,0.13500121,-0.3747658,-0.72219545
336,3.3599999999999723,0.673088,-0.6641851,-0.14391084,0.13500121,-0.3747658,-0.72219545
337,3.369999999999972,0.673088,-0.6641851,-0.14391084,0.13500121,-0.3747658,-0.72219545
338,3.379999999999972,0.6844302,-0.6650998,-0.15305771,0.10216721,-0.27000242,-0.6762278
339,3.3899999999999717,0.70187026,-0.6931502,-0.12525122,-0.14844026,0.14828753,-0.6930266
340,3.3999999999999715,0.71101713,-0.70394355,-0.16153382,-0.19410244,0.17608191,-0.68371093
341,3.4099999999999713,0.7285791,-0.7172979,-0.10031073,-0.24083363,0.052534413,-0.6834055
342,3.419999999999971,0.7238837,-0.7123586,-0.076528855,-0.19608775,-0.026572637,-0.6889033
343,3.429999999999971,0.7238837,-0.7123586,-0.076528855,-0.19608775,-0.026572637,-0.6889033
344,3.4399999999999706,0.7204689,-0.6880889,-0.09000525,-0.10995574,-0.09437868,-0.67347896
345,3.4499999999999704,0.74345803,-0.6422326,-0.12640981,0.08445212,-0.13072516,-0.5534439
346,3.45999999999997,0.7542513,-0.6232071,-0.14409378,0.082619525,-0.09285152,-0.5180137
347,3.46999999999997,0.7677887,-0.5939371,-0.14915505,0.02397646,0.00580322,-0.4454735
348,3.47999999999997,0.7850458,-0.57180166,-0.1302515,-0.08170322,0.13209961,-0.3475823
349,3.4899999999999696,0.7935829,-0.5687527,-0.112689495,-0.17104226,0.21105394,-0.26160303
350,3.4999999999999694,0.7935829,-0.5687527,-0.112689495,-0.17104226,0.21105394,-0.26160303
351,3.509999999999969,0.7685814,-0.61607254,-0.06945527,-0.33322698,0.09208794,-0.030848695
352,3.519999999999969,0.77181333,-0.6340004,-0.040978,-0.3275765,-0.07376198,0.059101213
353,3.5299999999999687,0.7676058,-0.6505867,-0.048600398,-0.3275765,-0.07376198,0.059101213
354,3.5399999999999685,0.7676058,-0.6505867,-0.048600398,-0.15851954,-0.73792523,0.08735373
355,3.5499999999999683,0.70443135,-0.6669292,-0.15769213,-0.27580565,-0.32604933,0.113162786
356,3.559999999999968,0.687845,-0.6662584,-0.20659742,-0.064599,-0.6252206,-0.00061086525
357,3.569999999999968,0.687845,-0.6662584,-0.20659742,-0.064599,-0.6252206,-0.00061086525
358,3.5799999999999677,0.69449174,-0.6726002,-0.23226966,-0.0852157,-0.32620203,0.0016798794
359,3.5899999999999674,0.7764478,-0.65930676,-0.19946286,-0.15057829,0.0346666,0.031612277
360,3.5999999999999672,0.76114196,-0.6540016,-0.18019344,-0.17455475,0.2603813,0.05375614
361,3.609999999999967,0.74778754,-0.6345492,-0.17470531,-0.10720685,0.23518312,0.086132
362,3.619999999999967,0.7526049,-0.6243047,-0.1703758,-0.083383106,0.17073683,0.08903361
363,3.6299999999999666,0.7399822,-0.63052464,-0.12171442,0.06414085,0.04596761,0.15042557
364,3.6399999999999664,0.7385797,-0.6490623,-0.11665315,0.17119499,-0.05207626,0.20280726
365,3.649999999999966,0.74120176,-0.66320944,-0.13055639,0.21563543,-0.11652254,0.2180789
366,3.659999999999966,0.7621786,-0.66229475,-0.17812014,0.20158553,-0.18371773,0.19990565
367,3.6699999999999657,0.7385797,-0.6779054,-0.14939895,0.14202617,-0.21838433,0.17150041
368,3.6799999999999655,0.7385797,-0.6779054,-0.14939895,0.05665775,-0.12614368,0.1853976
369,3.6899999999999653,0.71809065,-0.7271766,-0.11829959,0.0010690142,-0.06047566,0.20066923
370,3.699999999999965,0.71802974,-0.6887597,-0.13976426,-0.031001411,-0.027794369,0.19165897
371,3.709999999999965,0.71802974,-0.6887597,-0.13976426,-0.05497787,-0.06582073,0.13423763
372,3.7199999999999647,0.70351666,-0.6771737,-0.15269183,-0.044898596,-0.07437284,0.1049161
373,3.7299999999999645,0.71132195,-0.66546565,-0.16007032,-0.03756821,-0.069485925,0.09636399
374,3.7399999999999642,0.7293108,-0.66436803,-0.15598471,-0.05375614,-0.039095376,0.10598512
375,3.749999999999964,0.7247984,-0.6560749,-0.15080148,-0.11438452,0.008246681,0.15683965
376,3.759999999999964,0.7247984,-0.6560749,-0.15080148,-0.11438452,0.008246681,0.15683965
377,3.7699999999999636,0.73168904,-0.6590018,-0.15848486,-0.096516706,0.010995574,0.23151793
378,3.7799999999999634,0.7274205,-0.65955067,-0.16726585,-0.025503624,-0.011759156,0.2687807
379,3.789999999999963,0.7192493,-0.6605873,-0.18049833,0.060170226,-0.023365596,0.2864958
380,3.799999999999963,0.7014434,-0.6700391,-0.19763349,0.17531833,-0.007941248,0.2883284
381,3.8099999999999627,0.6932112,-0.69004023,-0.18726702,0.25457808,0.021838432,0.29123
382,3.8199999999999625,0.7106512,-0.7132124,-0.16726585,0.2764165,0.058490347,0.29856038
383,3.8299999999999623,0.7286401,-0.73010355,-0.15128931,0.26267207,0.09636399,0.2921463
384,3.839999999999962,0.72760344,-0.7379089,-0.14098383,0.22708915,0.11560625,0.27229318
385,3.849999999999962,0.72370076,-0.74327505,-0.134642,0.17592919,0.10415252,0.24266621
386,3.8599999999999617,0.72077376,-0.7437629,-0.13415417,0.14309518,0.08811731,0.21197024
387,3.8699999999999615,0.7095536,-0.7360795,-0.13970327,0.1142318,0.062155537,0.17027868
388,3.8799999999999613,0.69449174,-0.72937185,-0.14580119,0.0580322,0.056963183,0.13805555
389,3.889999999999961,0.6880889,-0.7215665,-0.1469598,0.0580322,0.056963183,0.13805555
390,3.899999999999961,0.69199157,-0.71668816,-0.1469598,-0.0050396384,0.112704635,0.16676621
391,3.9099999999999606,0.6991871,-0.7097975,-0.14403279,-0.091477074,0.16722436,0.22357668
392,3.9199999999999604,0.6859547,-0.6928453,-0.14244732,-0.18310685,0.1740966,0.36728272
393,3.92999999999996,0.69930905,-0.68680835,-0.11604336,-0.1797471,0.12675454,0.47647488
394,3.93999999999996,0.71626127,-0.6803446,-0.11403105,-0.11866058,0.083383106,0.5748242
395,3.9499999999999598,0.72668874,-0.6871742,-0.12409261,-0.029321533,0.01572978,0.66981375
396,3.9599999999999596,0.7296767,-0.68522286,-0.1314101,0.032070424,-0.0290161,0.71578133
397,3.9699999999999593,0.7332135,-0.6949796,-0.14000817,0.14767668,-0.13561209,0.7805331
398,3.979999999999959,0.7338233,-0.6921136,-0.15269183,0.18707748,-0.17684549,0.795652
399,3.989999999999959,0.71199274,-0.6810763,-0.17159538,0.22021692,-0.19120082,0.80557853
400,3.9999999999999587,0.71199274,-0.6810763,-0.17159538,0.22021692,-0.19120082,0.80557853
401,4.009999999999959,0.67522234,-0.6594897,-0.21068303,0.22021692,-0.19120082,0.80557853
402,4.019999999999959,0.67522234,-0.6594897,-0.21068303,0.22113322,-0.15088372,0.8078693
403,4.0299999999999585,0.646867,-0.66113615,-0.20513393,-0.0917825,0.0047342055,0.88606006
404,4.039999999999958,0.64070815,-0.68583274,-0.15421632,-0.2087632,0.054061573,0.929126
405,4.049999999999958,0.6341224,-0.7028459,-0.12238518,-0.24358252,0.09773844,0.9618073
406,4.059999999999958,0.63735425,-0.7372991,-0.08244383,-0.23701571,0.1516473,1.0349585
407,4.069999999999958,0.64320827,-0.76205665,-0.0693943,-0.2125811,0.1385137,1.0596985
408,4.079999999999957,0.6492452,-0.79077786,-0.06658925,-0.15928312,0.046120327,1.0812315
409,4.089999999999957,0.6635753,-0.8190112,-0.07530928,-0.09941832,-0.100029185,1.0760391
410,4.099999999999957,0.68912554,-0.8725509,-0.11049425,0.01450805,-0.23243423,1.0345002
411,4.109999999999957,0.68863773,-0.88974696,-0.15269183,0.01450805,-0.23243423,1.0345002
412,4.119999999999957,0.68741816,-0.89224714,-0.1750712,0.056505036,-0.14446963,0.88025683
413,4.129999999999956,0.68741816,-0.89224714,-0.1750712,0.056505036,-0.14446963,0.88025683
414,4.139999999999956,0.6565017,-0.8740754,-0.21458568,-0.04886922,0.009468411,0.68325275
415,4.149999999999956,0.588388,-0.8497447,-0.2409287,-0.09666943,0.05177083,0.6337727
416,4.159999999999956,0.52801865,-0.8501106,-0.24733151,-0.38148534,0.26343563,0.45982882
417,4.1699999999999555,0.4899676,-0.8620015,-0.23440392,-0.47769663,0.40301836,0.39263365
418,4.179999999999955,0.4598439,-0.895784,-0.22604977,-0.52305335,0.6235407,0.30207285
419,4.189999999999955,0.4539899,-0.94267696,-0.24452646,-0.5346598,0.7770206,0.19868392
420,4.199999999999955,0.43154958,-1.001339,-0.26007617,-0.5627596,0.89629203,0.054825157
421,4.209999999999955,0.39764515,-1.0113395,-0.2783699,-0.634689,0.90056807,-0.032528576
422,4.2199999999999545,0.2959319,-0.9974363,-0.29904184,-0.7359399,0.8571966,-0.03176499
423,4.229999999999954,0.21446373,-0.9774961,-0.30398116,-0.8895725,0.8016079,0.13026701
424,4.239999999999954,0.21446373,-0.9774961,-0.30398116,-0.8895725,0.8016079,0.13026701
425,4.249999999999954,0.19763349,-0.9324324,-0.20775603,-1.2672399,0.7816021,0.6221663
426,4.259999999999954,0.25824678,-0.9029186,-0.0939689,-1.3814718,0.7704538,0.90408057
427,4.269999999999953,0.35191077,-0.848891,0.016464375,-1.324814,0.6724099,1.1887437
428,4.279999999999953,0.51557887,-0.7622396,0.122751065,-1.324814,0.6724099,1.1887437
429,4.289999999999953,0.59948623,-0.73986024,0.103359684,-0.8029824,0.4259258,1.5013541
430,4.299999999999953,0.70558995,-0.7224202,0.005793021,-0.45906523,0.14737125,1.513266
431,4.3099999999999525,0.8231578,-0.69065005,-0.17226616,-0.10934488,-0.01817324,1.2005029
432,4.319999999999952,0.83907336,-0.69272333,-0.24861206,-0.10934488,-0.01817324,1.2005029
433,4.329999999999952,0.83907336,-0.69272333,-0.24861206,0.021380283,-0.004428773,0.82436264
434,4.339999999999952,0.83907336,-0.69272333,-0.24861206,0.07925977,-0.009773844,0.36361754
435,4.349999999999952,0.6202191,-0.8185843,-0.17421748,0.07925977,-0.009773844,0.36361754
436,4.3599999999999515,0.3331292,-0.93987197,-0.052807957,0.12156218,-0.1385137,-0.20204368
437,4.369999999999951,0.3331292,-0.93987197,-0.052807957,0.12156218,-0.1385137,-0.20204368
438,4.379999999999951,0.30099317,-0.9399329,-0.15446024,0.28893927,-0.36545014,-0.03970624
439,4.389999999999951,0.29757833,-0.9245052,-0.21367101,0.35140023,-0.50426924,-0.062002823
440,4.399999999999951,0.29757833,-0.9245052,-0.21367101,0.36377025,-0.6262896,-0.1348485
441,4.40999999999995,0.18738899,-0.93456674,-0.25166103,0.300393,-0.74281216,-0.23518312
442,4.41999999999995,0.12750745,-0.9426159,-0.20586567,0.21365012,-0.7458665,-0.2649628
443,4.42999999999995,0.12750745,-0.9426159,-0.20586567,0.1001819,-0.54260105,-0.20540343
444,4.43999999999995,0.20757309,-0.895784,-0.20129223,-0.01817324,-0.18570304,-0.1244638
445,4.4499999999999496,0.29934675,-0.84565914,-0.24434352,-0.13881913,0.26145032,-0.18692477
446,4.459999999999949,0.37239978,-0.8009004,-0.26562527,-0.12217305,0.23335053,-0.2761111
447,4.469999999999949,0.4188659,-0.7723012,-0.24842913,-0.12217305,0.23335053,-0.2761111
448,4.479999999999949,0.4188659,-0.7723012,-0.24842913,0.00992656,-0.071318515,-0.46486846
449,4.489999999999949,0.4089263,-0.79193646,-0.11573846,0.00992656,-0.071318515,-0.46486846
450,4.4999999999999485,0.42722008,-0.7779722,-0.20098734,0.00992656,-0.071318515,-0.46486846
451,4.509999999999948,0.41526812,-0.7904729,-0.12104365,0.16630806,-0.18982637,-0.4277584
452,4.519999999999948,0.43356186,-0.7894363,-0.14330104,0.21120666,-0.18829921,-0.3895793
453,4.529999999999948,0.50624907,-0.8086447,-0.1876329,0.26282477,-0.23671028,-0.34025195
454,4.539999999999948,0.523872,-0.81827945,-0.18976717,0.28038713,-0.28053987,-0.3594942
455,4.549999999999947,0.52923816,-0.8245603,-0.18574256,0.2968805,-0.34513888,-0.3811799
456,4.559999999999947,0.52923816,-0.8245603,-0.18574256,0.2968805,-0.34513888,-0.3811799
457,4.569999999999947,0.52381104,-0.82992643,-0.17549805,0.33444872,-0.4474588,-0.38896844
458,4.579999999999947,0.5133836,-0.8265117,-0.16104598,0.38652498,-0.5204572,-0.38713586
459,4.589999999999947,0.49868765,-0.8144378,-0.1589117,0.43676865,-0.5358815,-0.3819435
460,4.599999999999946,0.48301598,-0.7974856,-0.16318026,0.49281552,-0.5013676,-0.3669773
461,4.609999999999946,0.462466,-0.79224133,-0.15757017,0.5143485,-0.4427246,-0.36468655
462,4.619999999999946,0.45167267,-0.7927902,-0.15378946,0.5664248,-0.35445455,-0.35246924
463,4.629999999999946,0.44679436,-0.8010833,-0.14592315,0.6406449,-0.30390546,-0.34116822
464,4.6399999999999455,0.44679436,-0.8010833,-0.14592315,0.6406449,-0.30390546,-0.34116822
465,4.649999999999945,0.44825786,-0.8024858,-0.14397182,0.6907359,-0.2950479,-0.3286455
466,4.659999999999945,0.465393,-0.82870686,-0.13762999,0.8561276,-0.3304781,-0.2968805
467,4.669999999999945,0.49490693,-0.84462243,-0.15226498,0.9408852,-0.33001995,-0.3391829
468,4.679999999999945,0.49490693,-0.84462243,-0.15226498,0.9408852,-0.33001995,-0.3391829
469,4.689999999999944,0.50191957,-0.8582818,-0.16372907,0.9060659,-0.21074851,-0.41325033
470,4.699999999999944,0.5112493,-0.86797744,-0.16933915,0.86651236,-0.13423763,-0.4529566
471,4.709999999999944,0.50594413,-0.8743803,-0.17122951,0.77549344,-0.023823744,-0.5140431
472,4.719999999999944,0.49673632,-0.8724899,-0.1733028,0.70524395,0.056199603,-0.54412824
473,4.729999999999944,0.50948095,-0.8807221,-0.17842504,0.6042985,0.1348485,-0.57818395
474,4.739999999999943,0.54783684,-0.90639436,-0.1972676,0.495259,0.17195857,-0.6204864
475,4.749999999999943,0.641074,-0.95316535,-0.23373315,0.34025195,0.16233744,-0.7058548
476,4.759999999999943,0.75114137,-1.0184741,-0.28251648,0.07009678,0.09682214,-0.9104946
477,4.769999999999943,0.75980043,-1.0412192,-0.25922245,-0.20662516,0.08979719,-1.1323915
478,4.7799999999999425,0.7111391,-1.0154251,-0.18013246,-0.34193182,0.24388795,-1.2328788
479,4.789999999999942,0.6455255,-0.94164026,-0.14561825,-0.40500367,0.50701815,-1.2673926
480,4.799999999999942,0.5957055,-0.86639196,-0.13049541,-0.39522982,0.6560693,-1.2606732
481,4.809999999999942,0.56137425,-0.79193646,-0.10250599,-0.3294091,0.6711882,-1.2308935
482,4.819999999999942,0.55576414,-0.7403481,-0.10854292,-0.2648101,0.54351735,-1.2043208
483,4.8299999999999415,0.570765,-0.70260197,-0.07329696,-0.17394388,0.32925636,-1.1746938
484,4.839999999999941,0.6045475,-0.68863773,-0.047319833,-0.076052725,0.1601994,-1.1391109
485,4.849999999999941,0.6318661,-0.6899183,-0.046527103,-0.019089539,0.05085453,-1.1078042
486,4.859999999999941,0.6782713,-0.7081511,-0.0482955,0.01572978,-0.044135015,-1.0764973
487,4.869999999999941,0.70644367,-0.7333965,-0.06915038,0.018784106,-0.14172074,-1.0528263
488,4.87999999999994,0.70644367,-0.7333965,-0.06915038,-0.040317107,-0.27748555,-1.0172434
489,4.88999999999994,0.74919003,-0.80687636,-0.11165286,-0.10415252,-0.3119994,-0.96852684
490,4.89999999999994,0.7264448,-0.79492444,-0.13836174,-0.19807306,-0.269697,-0.8750645
491,4.90999999999994,0.6685146,-0.7455313,-0.12397064,-0.19807306,-0.269697,-0.8750645
492,4.9199999999999395,0.6553431,-0.7154076,-0.13860564,-0.17134771,-0.1255328,-0.82787514
493,4.929999999999939,0.6899183,-0.68357646,-0.15372847,-0.14110987,0.15317446,-0.69058317
494,4.939999999999939,0.73126215,-0.67503935,-0.15147226,-0.18952094,0.15668693,-0.5991061
495,4.949999999999939,0.73126215,-0.67503935,-0.15147226,-0.18952094,0.15668693,-0.5991061
496,4.959999999999939,0.76388603,-0.6630265,-0.10598179,-0.2657264,0.100334615,-0.4868596
497,4.9699999999999385,0.78138703,-0.6641851,-0.054149497,-0.2657264,0.100334615,-0.4868596
498,4.979999999999938,0.78138703,-0.6641851,-0.054149497,-0.2657264,0.100334615,-0.4868596
499,4.989999999999938,0.7253472,-0.65936774,-0.10299382,-0.22922719,-0.018784106,-0.2695443
500,4.999999999999938,0.69266236,-0.63522,-0.11823861,-0.08674286,-0.2863431,-0.21135938
501,5.009999999999938,0.69815046,-0.61527985,-0.14378887,-0.016798794,-0.32238412,-0.182496
502,5.019999999999937,0.7194932,-0.60747445,-0.18507177,0.008552114,-0.268628,-0.17654006
503,5.029999999999937,0.7387626,-0.61668235,-0.20720722,-0.0143553335,-0.16126843,-0.18570304
504,5.039999999999937,0.729006,-0.6342443,-0.19196242,-0.035888333,-0.07727446,-0.18127427
505,5.049999999999937,0.72010297,-0.65857506,-0.16689998,-0.05681047,0.06918049,-0.1366811
506,5.0599999999999365,0.73894554,-0.6676609,-0.14317909,-0.07086037,0.12293663,-0.0954477
507,5.069999999999936,0.74071395,-0.6651608,-0.12665373,-0.07086037,0.104610674,-0.07452556
508,5.079999999999936,0.73717713,-0.6617459,-0.117933705,-0.06566802,0.053450707,-0.053450707
509,5.089999999999936,0.746385,-0.63979346,-0.12592198,-0.0580322,-0.06841691,0.03390302
510,5.099999999999936,0.746385,-0.63979346,-0.12592198,-0.0580322,-0.06841691,0.03390302
511,5.1099999999999355,0.75205606,-0.63302475,-0.16348514,-0.056963183,-0.095294975,0.09514226
512,5.119999999999935,0.76797163,-0.6349761,-0.19446257,-0.09040806,-0.10873401,0.19532417
513,5.129999999999935,0.74443364,-0.6565017,-0.16470474,-0.06429356,-0.043829583,0.23197608
514,5.139999999999935,0.74443364,-0.6565017,-0.16470474,-0.06429356,-0.043829583,0.23197608
515,5.149999999999935,0.7323598,-0.68193007,-0.16257046,0.013744468,0.0030543262,0.25427267
516,5.159999999999934,0.7022971,-0.73077434,-0.14574021,0.06414085,-0.013591751,0.24602598
517,5.169999999999934,0.6827837,-0.7382138,-0.1414107,0.18875736,-0.0777326,0.15897769
518,5.179999999999934,0.66705114,-0.74114084,-0.12793429,0.19837849,-0.026419923,0.14049901
519,5.189999999999934,0.70851696,-0.73315257,-0.13586158,0.14737125,0.07574729,0.1385137
520,5.199999999999934,0.72876203,-0.71052927,-0.12525122,0.057726767,0.11789699,0.110872045
521,5.209999999999933,0.7139441,-0.6886987,-0.11982407,-0.041691553,0.14538592,0.10277808
522,5.219999999999933,0.7149198,-0.6857717,-0.118360564,-0.08689558,0.13041973,0.103847094
523,5.229999999999933,0.70626074,-0.6872962,-0.12866604,-0.08659015,0.0888809,0.10399981
524,5.239999999999933,0.7048582,-0.68540585,-0.13750802,-0.06047566,0.05131268,0.1067487
525,5.2499999999999325,0.7063827,-0.6922355,-0.14031307,0.0022907446,0.008857546,0.10369437
526,5.259999999999932,0.70790714,-0.69808954,-0.1445816,0.0022907446,0.008857546,0.10369437
527,5.269999999999932,0.7031508,-0.699614,-0.15147226,0.019242255,0.033444874,0.091477074
528,5.279999999999932,0.708456,-0.7010165,-0.14848427,0.014049901,0.08460484,0.0936151
529,5.289999999999932,0.7176638,-0.70095557,-0.14494748,0.014049901,0.08460484,0.0936151
530,5.299999999999931,0.722969,-0.6945527,-0.14208147,0.006414085,0.10293079,0.10949759
531,5.309999999999931,0.70876086,-0.67223436,-0.14537434,0.015882496,0.11652254,0.14370605
532,5.319999999999931,0.70876086,-0.67223436,-0.14537434,0.065973446,0.111941054,0.18432859
533,5.329999999999931,0.7112,-0.6843692,-0.13744704,0.12583824,0.09407325,0.21548271
534,5.339999999999931,0.7204689,-0.70619977,-0.1273245,0.23533584,0.0021380284,0.26297748
535,5.34999999999993,0.71174884,-0.7247984,-0.12281204,0.24174993,-0.03940081,0.26068676
536,5.35999999999993,0.69723576,-0.7399822,-0.12567806,0.21013765,-0.04810564,0.23732115
537,5.36999999999993,0.6909549,-0.7424823,-0.1276294,0.14630222,-0.009468411,0.21960606
538,5.37999999999993,0.69180864,-0.728823,-0.12098267,0.02687807,0.06780604,0.20754147
539,5.3899999999999295,0.69180864,-0.728823,-0.12098267,0.02687807,0.06780604,0.20754147
540,5.399999999999929,0.69412583,-0.7132124,-0.11872645,-0.10720685,0.15485434,0.20143281
541,5.409999999999929,0.6857108,-0.70443135,-0.112567544,-0.19960022,0.21166481,0.20540343
542,5.419999999999929,0.68211293,-0.6961382,-0.098603316,-0.27198774,0.20631973,0.25167647
543,5.429999999999929,0.6871133,-0.696626,-0.112201676,-0.21426098,0.14569137,0.29016098
544,5.4399999999999284,0.6871133,-0.696626,-0.112201676,-0.21426098,0.14569137,0.29016098
545,5.449999999999928,0.6871133,-0.696626,-0.112201676,-0.21426098,0.14569137,0.29016098
546,5.459999999999928,0.7013824,-0.7157125,-0.16007032,-0.21426098,0.14569137,0.29016098
547,5.469999999999928,0.70882183,-0.72254217,-0.17159538,0.058184914,0.105068825,0.46944994
548,5.479999999999928,0.72351784,-0.7390065,-0.1683025,0.06963864,0.16493362,0.52183163
549,5.489999999999927,0.72351784,-0.7390065,-0.1683025,0.05665775,0.20173825,0.61208695
550,5.499999999999927,0.71315134,-0.7419335,-0.15372847,0.035888333,0.16493362,0.65133506
551,5.509999999999927,0.71315134,-0.7419335,-0.15372847,0.035888333,0.16493362,0.65133506
552,5.519999999999927,0.67131966,-0.7383357,-0.16787565,-0.06078109,0.08277224,0.71837753
553,5.5299999999999265,0.67131966,-0.7383357,-0.16787565,-0.06078109,0.08277224,0.71837753
554,5.539999999999926,0.6635143,-0.7340062,-0.16750978,-0.06078109,0.08277224,0.71837753
555,5.549999999999926,0.65808713,-0.7344941,-0.16269243,-0.23075435,-0.0,0.7959574
556,5.559999999999926,0.65302587,-0.74516547,-0.13531277,-0.40530908,0.0050396384,0.8730792
557,5.569999999999926,0.65302587,-0.74516547,-0.13531277,-0.44226643,0.021991149,0.8923214
558,5.5799999999999255,0.6587579,-0.75089747,-0.117140986,-0.44226643,0.021991149,0.8923214
559,5.589999999999925,0.64052516,-0.7537025,-0.045673396,-0.45280385,0.10980303,0.92011577
560,5.599999999999925,0.63168323,-0.7542513,-0.04329521,-0.40546182,0.14676037,0.92149025
561,5.609999999999925,0.6128406,-0.75882477,-0.056100838,-0.32696563,0.13255776,0.9219484
562,5.619999999999925,0.6077794,-0.7637641,-0.079516836,-0.26160303,0.073303826,0.9275989
563,5.629999999999924,0.60759646,-0.7780332,-0.104152426,-0.17867808,-0.011759156,0.9149234
564,5.639999999999924,0.59930325,-0.8064495,-0.13897152,-0.12782355,-0.060322944,0.8713993
565,5.649999999999924,0.59381515,-0.8211454,-0.16177773,-0.12782355,-0.060322944,0.8713993
566,5.659999999999924,0.58960754,-0.87688047,-0.20013362,-0.15317446,-0.0009162979,0.70707655
567,5.6699999999999235,0.5777776,-0.9081627,-0.21300024,-0.22296582,0.08155051,0.6169739
568,5.679999999999923,0.5603985,-0.924932,-0.22513509,-0.31749722,0.18081611,0.515723
569,5.689999999999923,0.5279576,-0.948531,-0.23300138,-0.45769078,0.3202461,0.41996986
570,5.699999999999923,0.5100907,-0.95792174,-0.2437947,-0.52183163,0.38560867,0.4034765
571,5.709999999999923,0.500578,-0.9794474,-0.25385627,-0.6151413,0.44974953,0.37934732
572,5.7199999999999225,0.5227134,-1.0046928,-0.25867364,-0.6397286,0.4654793,0.355829
573,5.729999999999922,0.51417637,-0.9978631,-0.2403189,-0.64553183,0.45677447,0.30940324
574,5.739999999999922,0.5046026,-0.97639847,-0.2177566,-0.64644814,0.44700065,0.27763826
575,5.749999999999922,0.49978524,-0.93767667,-0.15055756,-0.6608035,0.36270124,0.33536503
576,5.759999999999922,0.48460147,-0.8707825,-0.081346214,-0.66813385,0.2687807,0.43600506
577,5.769999999999921,0.4499653,-0.79919297,-0.02262327,-0.65286225,0.24113905,0.59040123
578,5.779999999999921,0.43191543,-0.7065656,0.021830542,-0.5717699,0.25045475,0.7535023
579,5.789999999999921,0.4402086,-0.6304636,0.025367333,-0.43172902,0.18325958,0.9859365
580,5.799999999999921,0.50069994,-0.5644232,-0.022562291,-0.25671613,0.041996986,1.1882856
581,5.809999999999921,0.6126577,-0.5596668,-0.10781116,-0.105374254,-0.104610674,1.2657127
582,5.81999999999992,0.7247984,-0.608877,-0.17622979,0.056505036,-0.22220223,1.1815661
583,5.82999999999992,0.8024858,-0.70851696,-0.23562351,0.22342396,-0.33276883,0.8491027
584,5.83999999999992,0.78352135,-0.79102176,-0.24355079,0.311694,-0.37797287,0.48395798
585,5.84999999999992,0.6460133,-0.91749257,-0.21123183,0.3811799,-0.40393466,-0.039095376
586,5.8599999999999195,0.5588741,-0.9691419,-0.1885476,0.3764457,-0.4531093,-0.22724187
587,5.869999999999919,0.40173078,-1.0269502,-0.13775194,0.34147367,-0.57803124,-0.36147952
588,5.879999999999919,0.29318783,-1.0353043,-0.097322755,0.32345316,-0.70005155,-0.27183503
589,5.889999999999919,0.18391317,-0.9754228,-0.072870106,0.3275765,-0.7339546,-0.085673854
590,5.899999999999919,0.15348457,-0.9001745,-0.096042186,0.34406984,-0.6123924,0.2930626
591,5.909999999999918,0.19909698,-0.7827895,-0.19690172,0.313832,-0.5137377,0.3023783
592,5.919999999999918,0.19909698,-0.7827895,-0.19690172,0.313832,-0.5137377,0.3023783
593,5.929999999999918,0.19909698,-0.7827895,-0.19690172,0.313832,-0.5137377,0.3023783
594,5.939999999999918,0.22556195,-0.74662894,-0.23165986,0.081397794,-0.12782355,-0.26099217
595,5.949999999999918,0.25391725,-0.7605932,-0.23172083,0.13958271,-0.21991149,-0.04627304
596,5.959999999999917,0.3125792,-0.9356034,-0.19391376,0.063682705,0.09392053,-0.44684792
597,5.969999999999917,0.33910516,-0.92724925,-0.22050068,0.06734789,0.091477074,-0.43692136
598,5.979999999999917,0.35563052,-0.90328443,-0.22794013,0.06734789,0.091477074,-0.43692136
599,5.989999999999917,0.36404565,-0.8622454,-0.21665898,0.06704246,-0.075594574,-0.3811799
600,5.9999999999999165,0.3690459,-0.8387685,-0.19988972,0.06505715,-0.15989397,-0.35033122
601,6.009999999999916,0.3690459,-0.8387685,-0.19988972,0.06505715,-0.15989397,-0.35033122
602,6.019999999999916,0.42252466,-0.77333784,-0.12165344,0.06414085,-0.2415972,-0.30466905
603,6.029999999999916,0.44283074,-0.7649227,-0.10939662,0.09117164,-0.30482176,-0.24312437
604,6.039999999999916,0.47624728,-0.7544343,-0.09799352,0.14859296,-0.2958115,-0.22815818
605,6.0499999999999154,0.49771196,-0.75528795,-0.09921311,0.33108896,-0.27885997,-0.22831088
606,6.059999999999915,0.5338726,-0.7589467,-0.104152426,0.33108896,-0.27885997,-0.22831088
607,6.069999999999915,0.5662525,-0.7680326,-0.11787273,0.4381431,-0.32452217,-0.24938573
608,6.079999999999915,0.5662525,-0.7680326,-0.11787273,0.56779927,-0.42394048,-0.3032946
609,6.089999999999915,0.5843634,-0.7777283,-0.1243975,0.6339254,-0.5309946,-0.36117408
610,6.099999999999914,0.5652159,-0.84212226,-0.120372884,0.7334964,-0.63071835,-0.50320023
611,6.109999999999914,0.5490564,-0.8641358,-0.097871564,0.8144361,-0.6070473,-0.5505423
612,6.119999999999914,0.5335677,-0.8827344,-0.097749606,0.89659745,-0.5821546,-0.5891795
613,6.129999999999914,0.5136275,-0.87944156,-0.101408355,0.97035944,-0.59773165,-0.63514715
614,6.1399999999999135,0.5136275,-0.87944156,-0.101408355,0.999681,-0.57925296,-0.6461427
615,6.149999999999913,0.48478436,-0.8732827,-0.0983594,0.9993755,-0.5352707,-0.63407815
616,6.159999999999913,0.4487457,-0.8560255,-0.11262852,0.9793697,-0.50594914,-0.6097962
617,6.169999999999913,0.43276918,-0.84450054,-0.13287361,0.9286679,-0.46105054,-0.5723807
618,6.179999999999913,0.43478146,-0.84254915,-0.14067894,0.8570439,-0.42730024,-0.54000485
619,6.1899999999999125,0.44026962,-0.8464518,-0.14592315,0.7377725,-0.3755294,-0.5103779
620,6.199999999999912,0.45258737,-0.86486757,-0.14854525,0.63056564,-0.31031954,-0.49663344
621,6.209999999999912,0.46880785,-0.88669807,-0.14903308,0.48517972,-0.19532417,-0.49434268
622,6.219999999999912,0.48454046,-0.9046869,-0.15354554,0.3642284,-0.07651087,-0.51266867
623,6.229999999999912,0.50027305,-0.9226148,-0.15854584,0.20280726,0.094531395,-0.5682574
624,6.239999999999911,0.51990837,-0.94054264,-0.16202165,0.08781188,0.27076602,-0.6272059
625,6.249999999999911,0.5688137,-0.97987425,-0.20391434,-0.045814894,0.5151121,-0.72082096
626,6.259999999999911,0.59497374,-0.96810526,-0.24623388,-0.182496,0.6898196,-0.8031351
627,6.269999999999911,0.59881544,-0.92481005,-0.26519838,-0.28099802,0.7831292,-0.840856
628,6.2799999999999105,0.62875617,-0.8598063,-0.27300373,-0.35811976,0.8228355,-0.9112582
629,6.28999999999991,0.64070815,-0.8251092,-0.26849127,-0.3817908,0.7797695,-1.0065532
630,6.29999999999991,0.6811983,-0.7130294,-0.19537725,-0.3715588,0.68325275,-1.1456778
631,6.30999999999991,0.6811983,-0.7130294,-0.19537725,-0.36178493,0.49388456,-1.3283265
632,6.31999999999991,0.6957113,-0.6961991,-0.14525238,-0.36178493,0.49388456,-1.3283265
633,6.3299999999999095,0.7068095,-0.71150494,-0.07524829,-0.3303254,0.44135013,-1.391551
634,6.339999999999909,0.769862,-0.819621,-0.027013771,-0.22724187,0.3567453,-1.3011429
635,6.349999999999909,0.799315,-0.8598672,-0.025245376,-0.16310102,0.21090123,-1.2011138
636,6.359999999999909,0.7635202,-0.8352316,-0.017135147,-0.086437434,0.06505715,-1.1253664
637,6.369999999999909,0.6884548,-0.76614225,-0.05963763,0.0364992,-0.091477074,-1.0126618
638,6.379999999999908,0.6589409,-0.7313841,-0.1012864,0.10903945,-0.18860464,-0.9260717
639,6.389999999999908,0.6508306,-0.7168711,-0.12884897,0.16630806,-0.21242839,-0.84620106
640,6.399999999999908,0.6508306,-0.7168711,-0.12884897,0.16630806,-0.21242839,-0.84620106
641,6.409999999999908,0.6508306,-0.7168711,-0.12884897,0.16630806,-0.21242839,-0.84620106
642,6.419999999999908,0.69851637,-0.68247885,-0.13659334,0.041691553,0.1554652,-0.73716164
643,6.429999999999907,0.69851637,-0.68247885,-0.13659334,0.041691553,0.1554652,-0.73716164
644,6.439999999999907,0.7322379,-0.66613644,-0.10866488,-0.22204952,0.3284928,-0.70524395
645,6.449999999999907,0.7247374,-0.6542455,-0.04750277,-0.33108896,0.32421672,-0.6814202
646,6.459999999999907,0.725896,-0.64735484,-0.023233064,-0.33108896,0.32421672,-0.6814202
647,6.4699999999999065,0.74278724,-0.6267439,-0.014513042,-0.2929099,0.2744312,-0.6565274
648,6.479999999999906,0.76870334,-0.6047304,-0.03744121,-0.23380867,0.04046982,-0.62949663
649,6.489999999999906,0.7812041,-0.58143634,-0.080492504,-0.23380867,0.04046982,-0.62949663
650,6.499999999999906,0.79218036,-0.56911856,-0.06445498,-0.2452624,-0.09987647,-0.58123827
651,6.509999999999906,0.79803437,-0.5719846,-0.06628435,-0.18661933,-0.23716843,-0.364992
652,6.519999999999905,0.79803437,-0.5719846,-0.06628435,-0.24373524,-0.20479257,-0.49281552
653,6.529999999999905,0.7907169,-0.5858269,-0.1042134,-0.11102476,-0.2779437,-0.24572055
654,6.539999999999905,0.7907169,-0.5858269,-0.1042134,-0.035430185,-0.3391829,-0.085673854
655,6.549999999999905,0.7864483,-0.6274147,-0.14177656,0.05589417,-0.32788193,-0.035277467
656,6.559999999999905,0.75998336,-0.65637976,-0.15921661,0.0711658,-0.12873985,0.02031127
657,6.569999999999904,0.75998336,-0.65637976,-0.15921661,-0.019700404,0.057421334,0.027488936
658,6.579999999999904,0.7635202,-0.64796466,-0.13006857,-0.12232576,0.18371773,0.031154128
659,6.589999999999904,0.7838872,-0.63076854,-0.12958074,-0.301462,0.20708331,0.041080687
660,6.599999999999904,0.7662642,-0.626317,-0.07226031,-0.38606682,0.20173825,0.071013086
661,6.6099999999999035,0.7662642,-0.626317,-0.07226031,-0.42287147,0.13087788,0.15561792
662,6.619999999999903,0.7563856,-0.623451,-0.06317442,-0.3417791,-0.07620544,0.1863139
663,6.629999999999903,0.75089747,-0.6250365,-0.099274084,-0.21044308,-0.27183503,0.19394971
664,6.639999999999903,0.749251,-0.6290611,-0.12750745,-0.04520403,-0.4269948,0.20189096
665,6.649999999999903,0.7544952,-0.6325369,-0.16348514,0.110872045,-0.49556443,0.21288654
666,6.659999999999902,0.7630323,-0.6408301,-0.18226673,0.15210545,-0.45020768,0.20799962
667,6.669999999999902,0.7665081,-0.6549163,-0.17866896,0.1133155,-0.32834008,0.19501872
668,6.679999999999902,0.7526659,-0.6651608,-0.15330163,0.021533,-0.18005253,0.19639318
669,6.689999999999902,0.7466899,-0.66955125,-0.13531277,-0.061391957,-0.0804815,0.21380283
670,6.699999999999902,0.73571366,-0.7045533,-0.09159071,-0.18112154,-0.00290161,0.279929
671,6.709999999999901,0.7283961,-0.7138221,-0.08817588,-0.18112154,-0.00290161,0.279929
672,6.719999999999901,0.7403481,-0.7021751,-0.11695804,-0.17486018,-0.09560041,0.3575089
673,6.729999999999901,0.74479955,-0.67540526,-0.13866661,-0.17486018,-0.09560041,0.3575089
674,6.739999999999901,0.74479955,-0.67540526,-0.13866661,-0.09743301,-0.12064589,0.34574974
675,6.7499999999999005,0.71248055,-0.6625996,-0.18592548,-0.048716504,-0.061850104,0.33490688
676,6.7599999999999,0.7068095,-0.6719294,-0.19366984,-0.0015271631,0.021380283,0.312763
677,6.7699999999999,0.7022971,-0.6767468,-0.178547,-0.0015271631,0.021380283,0.312763
678,6.7799999999999,0.7015653,-0.6801007,-0.155131,0.06887506,0.15607607,0.26007587
679,6.7899999999999,0.7027849,-0.6805275,-0.12927583,0.08628472,0.13423763,0.24678956
680,6.7999999999998995,0.71620035,-0.6905891,-0.099274084,0.11148291,0.030543262,0.24129178
681,6.809999999999899,0.71961516,-0.69540644,-0.093359105,0.13942999,-0.0852157,0.23335053
682,6.819999999999899,0.7104073,-0.69010127,-0.1027499,0.16233744,-0.19624045,0.22052236
683,6.829999999999899,0.7052241,-0.6887597,-0.123299874,0.17638734,-0.25961772,0.2134974
684,6.839999999999899,0.7138221,-0.6932112,-0.15092343,0.15668693,-0.24510968,0.2182316
685,6.849999999999898,0.71430993,-0.693699,-0.15287478,0.1330159,-0.19517145,0.22770002
686,6.859999999999898,0.70900476,-0.69906515,-0.15726528,0.096516706,-0.0842994,0.25030205
687,6.869999999999898,0.7050411,-0.69857734,-0.14903308,0.096516706,-0.0842994,0.25030205
688,6.879999999999898,0.7050411,-0.69857734,-0.14903308,0.09743301,-0.052534413,0.2501493
689,6.8899999999998975,0.7050411,-0.69857734,-0.14903308,0.09743301,-0.052534413,0.2501493
690,6.899999999999897,0.68912554,-0.7322988,-0.14824036,0.09743301,-0.052534413,0.2501493
691,6.909999999999897,0.6813812,-0.7542513,-0.13927643,0.19043724,-0.075289145,0.0917825
692,6.919999999999897,0.68674743,-0.75906867,-0.13384928,0.19043724,-0.075289145,0.0917825
693,6.929999999999897,0.6930283,-0.75906867,-0.1308613,0.16752979,-0.07437284,0.029168816
694,6.9399999999998965,0.6855888,-0.72351784,-0.14061797,0.12599096,-0.05757405,-0.011453724
695,6.949999999999896,0.69180864,-0.69040614,-0.14580119,-0.022296581,0.11102476,-0.0143553335
696,6.959999999999896,0.7033947,-0.6567457,-0.15683842,-0.072540246,0.2218968,0.04734206
697,6.969999999999896,0.7033947,-0.6567457,-0.15683842,-0.072540246,0.2218968,0.04734206
698,6.979999999999896,0.7443117,-0.5769849,-0.15013072,-0.072540246,0.3578143,0.2938262
699,6.989999999999895,0.72229826,-0.59460783,-0.13110521,-0.072540246,0.3578143,0.2938262
700,6.999999999999895,0.7208957,-0.62284124,-0.12055582,0.1151481,0.2264783,0.61361414
701,7.009999999999895,0.73077434,-0.65881896,-0.11366516,0.23273966,0.10781772,0.7654142
702,7.019999999999895,0.7285791,-0.68857676,-0.11622629,0.32253686,-0.021991149,0.88025683
703,7.0299999999998946,0.7086999,-0.71504176,-0.11708001,0.3323107,-0.062155537,0.9282097
704,7.039999999999894,0.6829667,-0.74053097,-0.10726235,0.3126103,-0.07925977,0.9783007
705,7.049999999999894,0.66095316,-0.75181216,-0.09616415,0.2510656,-0.0711658,1.0071641
706,7.059999999999894,0.6370494,-0.7563246,-0.09146875,0.19456059,-0.051923547,1.0115929
707,7.069999999999894,0.62448764,-0.7569344,-0.097444706,0.1441642,-0.021685716,1.0027353
708,7.0799999999998935,0.62448764,-0.7569344,-0.097444706,0.06536258,0.05222898,0.9773844
709,7.089999999999893,0.60875505,-0.7766307,-0.12512925,0.019700404,0.10552697,0.9622655
710,7.099999999999893,0.617719,-0.793156,-0.13116619,-0.027488936,0.19685133,0.956615
711,7.109999999999893,0.62125576,-0.8082179,-0.13439809,-0.056199603,0.268628,0.95371336
712,7.119999999999893,0.6196093,-0.8144987,-0.11238461,-0.10476339,0.366061,0.97387195
713,7.129999999999892,0.6196093,-0.8144987,-0.11238461,-0.10476339,0.366061,0.97387195
714,7.139999999999892,0.600279,-0.7994369,-0.09177365,-0.14401148,0.3669773,0.98456204
715,7.149999999999892,0.5993643,-0.8067544,-0.09610317,-0.19058995,0.33505958,1.0259482
716,7.159999999999892,0.58820504,-0.8024858,-0.098725274,-0.17088956,0.3119994,1.0238101
717,7.169999999999892,0.5874123,-0.81712085,-0.11366516,-0.1337795,0.29138273,0.9960158
718,7.179999999999891,0.5874123,-0.81712085,-0.11366516,-0.1337795,0.29138273,0.9960158
719,7.189999999999891,0.56942344,-0.8568183,-0.1425693,-0.1470658,0.22036964,0.84696466
720,7.199999999999891,0.56826484,-0.9002355,-0.14397182,-0.22067507,0.17440203,0.7096727
721,7.209999999999891,0.5705211,-0.9460308,-0.14683785,-0.28328875,0.1385137,0.5907067
722,7.2199999999998905,0.57527745,-0.97822785,-0.16781467,-0.3471242,0.076816306,0.46944994
723,7.22999999999989,0.56728923,-1.0056685,-0.19049892,-0.41416663,-0.007941248,0.33353242
724,7.23999999999989,0.5630816,-1.0068271,-0.24605095,-0.46807548,-0.09392053,0.23564127
725,7.24999999999989,0.5429585,-0.9846916,-0.2952611,-0.54825157,-0.15195273,0.18768835
726,7.25999999999989,0.5229573,-0.95371425,-0.3158111,-0.61819565,-0.15958855,0.21181752
727,7.269999999999889,0.5200303,-0.9128582,-0.34117845,-0.7128797,-0.12965615,0.24037547
728,7.279999999999889,0.5119201,-0.887003,-0.3211163,-0.8226828,-0.060628377,0.28710666
729,7.289999999999889,0.50972486,-0.86877024,-0.25995418,-0.95249164,0.04718934,0.3483459
730,7.299999999999889,0.49698022,-0.8446834,-0.16879034,-1.052979,0.13820826,0.44394633
731,7.309999999999889,0.5246038,-0.810718,0.029879792,-0.9925033,0.2950479,0.5842926
732,7.319999999999888,0.5246038,-0.810718,0.029879792,-0.9925033,0.2950479,0.5842926
733,7.329999999999888,0.5225305,-0.74778754,0.19867012,-0.8399397,0.32543847,0.6450737
734,7.339999999999888,0.5225305,-0.74778754,0.19867012,-0.5306892,0.3361286,0.7339546
735,7.349999999999888,0.57503355,-0.68095434,-0.027257688,0.12904528,0.22556199,0.7519751
736,7.3599999999998875,0.57503355,-0.68095434,-0.027257688,0.2845105,0.18600847,0.61483586
737,7.369999999999887,0.57503355,-0.68095434,-0.027257688,0.2845105,0.18600847,0.61483586
738,7.379999999999887,0.579485,-0.7651056,-0.27763817,0.3680463,0.12980886,0.23151793
739,7.389999999999887,0.56393534,-0.84315896,-0.2836141,0.26190847,-0.11102476,-0.36636642
740,7.399999999999887,0.33764166,-0.9977411,-0.17677861,0.15149458,-0.3036,-0.49968776
741,7.4099999999998865,0.22733033,-1.01573,-0.1006766,0.050701816,-0.46639562,-0.4335616
742,7.419999999999886,0.22733033,-1.01573,-0.1006766,0.050701816,-0.46639562,-0.4335616
743,7.429999999999886,0.13677627,-0.99847287,-0.02628202,0.0022907446,-0.42058071,0.23640485
744,7.439999999999886,0.31776243,-0.85248876,-0.12665373,0.006414085,-0.30543262,0.42546764
745,7.449999999999886,0.39203507,-0.8199868,-0.16915621,-0.013286319,-0.2507602,0.38973203
746,7.459999999999885,0.45502654,-0.77974063,-0.20360945,-0.042455133,-0.17302758,0.24602598
747,7.469999999999885,0.47600338,-0.7562637,-0.21586627,-0.077121735,-0.0870483,-0.007788532
748,7.479999999999885,0.4431356,-0.75882477,-0.19379179,-0.07727446,-0.06047566,-0.22922719
749,7.489999999999885,0.36380172,-0.8156574,-0.12128756,-0.015577064,-0.046731193,-0.32436943
750,7.4999999999998845,0.36380172,-0.8156574,-0.12128756,0.0421497,-0.043982297,-0.34605515
751,7.509999999999884,0.35996002,-0.8341341,-0.11817763,0.14049901,-0.070249505,-0.37583485
752,7.519999999999884,0.3591063,-0.8337072,-0.13037346,0.20448714,-0.10415252,-0.39736784
753,7.529999999999884,0.36081374,-0.82602376,-0.16110696,0.29779682,-0.12675454,-0.40042216
754,7.539999999999884,0.36081374,-0.82602376,-0.16110696,0.31963524,-0.11804971,-0.37583485
755,7.5499999999998835,0.3869738,-0.8376099,-0.18897444,0.31474832,-0.12782355,-0.3575089
756,7.559999999999883,0.40063316,-0.8477934,-0.1838522,0.30008754,-0.15714508,-0.3378085
757,7.569999999999883,0.40063316,-0.8477934,-0.1838522,0.30283645,-0.20341812,-0.30833423
758,7.579999999999883,0.43844023,-0.85815984,-0.15555786,0.30543262,-0.25213462,-0.2677117
759,7.589999999999883,0.45289227,-0.8502325,-0.14433768,0.3115413,-0.2826779,-0.23441954
760,7.599999999999882,0.46880785,-0.8413296,-0.12964171,0.31871894,-0.28619036,-0.2087632
761,7.609999999999882,0.4914921,-0.8211454,-0.115555525,0.31871894,-0.28619036,-0.2087632
762,7.619999999999882,0.4914921,-0.8211454,-0.115555525,0.3622431,-0.22235495,-0.19410244
763,7.629999999999882,0.52429885,-0.7936439,-0.10189619,0.3915646,-0.18570304,-0.21609358
764,7.6399999999998816,0.5305188,-0.78675324,-0.09268834,0.4428773,-0.14874569,-0.2611449
765,7.649999999999881,0.5367996,-0.78474087,-0.08921252,0.4896085,-0.1339322,-0.3061962
766,7.659999999999881,0.54369026,-0.7900461,-0.0910419,0.5513059,-0.13729197,-0.3755294
767,7.669999999999881,0.5505809,-0.79736364,-0.097200796,0.6021604,-0.14935656,-0.45830166
768,7.679999999999881,0.5497272,-0.80419326,-0.10104248,0.6281222,-0.14431691,-0.5145013
769,7.6899999999998805,0.5488125,-0.81199855,-0.10531103,0.6394232,-0.14309518,-0.5510005
770,7.69999999999988,0.5488125,-0.81199855,-0.10531103,0.6394232,-0.14309518,-0.5510005
771,7.70999999999988,0.547471,-0.8222431,-0.107628234,0.53130007,-0.12339478,-0.7451029
772,7.71999999999988,0.6399763,-0.95590943,-0.31946984,0.3109304,-0.1994475,-0.8550586
773,7.72999999999988,0.68473506,-1.0045708,-0.3764244,0.070554934,-0.2510656,-0.968985
774,7.739999999999879,0.7151637,-1.0578055,-0.31599405,-0.24373524,-0.15699236,-1.1707232
775,7.749999999999879,0.61223084,-0.9959728,-0.14482552,-0.29016098,0.056199603,-1.248914
776,7.759999999999879,0.61223084,-0.9959728,-0.14482552,-0.29016098,0.056199603,-1.248914
777,7.769999999999879,0.56369144,-0.84035397,-0.16574138,-0.2996294,0.5626069,-1.340391
778,7.779999999999879,0.5630816,-0.72668874,-0.11842154,-0.29749137,0.63697976,-1.3932309
779,7.789999999999878,0.6006448,-0.7361405,-0.11598238,-0.28252518,0.63331455,-1.4457654
780,7.799999999999878,0.6334516,-0.7734598,-0.110311314,-0.28252518,0.63331455,-1.4457654
781,7.809999999999878,0.6334516,-0.7734598,-0.110311314,-0.2658791,0.58200186,-1.4883732
782,7.819999999999878,0.6627216,-0.796144,-0.10049367,-0.24694228,0.5186246,-1.5037975
783,7.8299999999998775,0.7027849,-0.76870334,-0.123299874,-0.24694228,0.5186246,-1.5037975
784,7.839999999999877,0.6694903,-0.72394466,-0.0837244,-0.22770002,0.40530908,-1.5117388
785,7.849999999999877,0.6891866,-0.69357705,-0.07805333,-0.077579886,0.075594574,-1.3883439
786,7.859999999999877,0.6891866,-0.69357705,-0.07805333,-0.030848695,-0.004428773,-1.3326025
787,7.869999999999877,0.71961516,-0.69004023,-0.10073759,0.014660766,-0.0627664,-1.2893838
788,7.879999999999876,0.7484583,-0.6724173,-0.12061679,0.053450707,-0.10751228,-1.161713
789,7.889999999999876,0.7596175,-0.6606483,-0.1197021,0.056505036,-0.10247265,-1.0650436
790,7.899999999999876,0.75711733,-0.64308625,-0.12140953,0.056963183,-0.07666359,-0.9624182
791,7.909999999999876,0.75711733,-0.64308625,-0.12140953,0.05390886,-0.035124753,-0.89904094
792,7.919999999999876,0.7527878,-0.64997697,-0.1267147,0.04596761,0.013744468,-0.86742866
793,7.929999999999875,0.7527878,-0.64997697,-0.1267147,0.028252518,0.07467828,-0.8518516
794,7.939999999999875,0.7628494,-0.63912266,-0.112140685,-0.024129177,0.15500705,-0.7987063
795,7.949999999999875,0.7651666,-0.62351197,-0.10939662,-0.05513059,0.19150625,-0.7806858
796,7.959999999999875,0.7659593,-0.62156063,-0.09573729,-0.10430524,0.1863139,-0.7528914
797,7.9699999999998745,0.7721182,-0.61948735,-0.07622396,-0.12736541,0.13744467,-0.71975195
798,7.979999999999874,0.7812651,-0.608694,-0.07482144,-0.12736541,0.13744467,-0.71975195
799,7.989999999999874,0.7720573,-0.6024132,-0.07884607,-0.08903361,-0.060170226,-0.7431176
800,7.999999999999874,0.77882594,-0.5921687,-0.08085837,-0.09407325,-0.17730364,-0.75747293
801,8.009999999999874,0.77882594,-0.5921687,-0.08085837,-0.09407325,-0.17730364,-0.75747293
802,8.019999999999873,0.7850458,-0.59064424,-0.070613876,-0.12950343,-0.3387248,-0.7851145
803,8.029999999999873,0.7850458,-0.59064424,-0.070613876,-0.12950343,-0.3387248,-0.7851145
804,8.039999999999873,0.81413287,-0.5973519,-0.09799352,-0.23777929,-0.45173484,-0.7510588
805,8.049999999999873,0.8151695,-0.6041816,-0.10616472,-0.26221392,-0.47739118,-0.72418076
806,8.059999999999873,0.81773067,-0.6071086,-0.11390909,-0.2564107,-0.46883908,-0.68875057
807,8.069999999999872,0.81608415,-0.60674274,-0.14317909,-0.23151793,-0.40011674,-0.6337727
808,8.079999999999872,0.80577874,-0.6152188,-0.18019344,-0.2180789,-0.29871312,-0.5522222
809,8.089999999999872,0.8505984,-0.59064424,-0.19275515,-0.18387043,0.019242255,-0.32452217
810,8.099999999999872,0.8505984,-0.59064424,-0.19275515,-0.18387043,0.019242255,-0.32452217
811,8.109999999999872,0.85413516,-0.56326455,-0.17549805,-0.1459968,0.119729586,-0.24755314
812,8.119999999999871,0.8492569,-0.50570023,-0.1606801,-0.09758572,0.16035213,-0.20586158
813,8.129999999999871,0.8475495,-0.48374772,-0.14635001,-0.075594574,0.0067195175,-0.19165897
814,8.139999999999871,0.8475495,-0.48374772,-0.14635001,-0.075594574,0.0067195175,-0.19165897
815,8.14999999999987,0.8193771,-0.46484417,-0.11958014,-0.03970624,-0.17379116,-0.21639901
816,8.15999999999987,0.8193771,-0.46484417,-0.11958014,-0.03970624,-0.17379116,-0.21639901
817,8.16999999999987,0.8199259,-0.43179348,-0.14628904,0.017104227,-0.36147952,-0.26908615
818,8.17999999999987,0.819621,-0.42160997,-0.16879034,0.021991149,-0.37232238,-0.26282477
819,8.18999999999987,0.84139055,-0.4435015,-0.1887915,-0.00030543262,-0.38087448,-0.19318613
820,8.19999999999987,0.85376936,-0.46435636,-0.19281614,-0.041233405,-0.38347065,-0.10781772
821,8.20999999999987,0.85376936,-0.46435636,-0.19281614,-0.079870634,-0.376293,-0.018784106
822,8.21999999999987,0.88858837,-0.5308846,-0.17946169,-0.079870634,-0.376293,-0.018784106
823,8.229999999999869,0.86809945,-0.54216576,-0.172693,-0.10323623,-0.40683624,0.04230242
824,8.239999999999869,0.82901174,-0.54484886,-0.16183871,-0.082161374,-0.41401392,0.013133603
825,8.249999999999869,0.80651045,-0.51966447,-0.16872935,-0.04810564,-0.3930918,0.01817324
826,8.259999999999868,0.8064495,-0.48752844,-0.18080322,-0.02733622,-0.4014912,0.05009095
827,8.269999999999868,0.807913,-0.47679612,-0.18775485,-0.015271631,-0.4196644,0.10048734
828,8.279999999999868,0.82901174,-0.4874065,-0.19226731,-0.0047342055,-0.42913285,0.19593503
829,8.289999999999868,0.8472445,-0.5068588,-0.2040363,-0.002443461,-0.43890667,0.24495697
830,8.299999999999867,0.83078015,-0.52594537,-0.20251182,-0.043676864,-0.5209153,0.26832256
831,8.309999999999867,0.83078015,-0.52594537,-0.20251182,-0.066737026,-0.5357288,0.26328292
832,8.319999999999867,0.81480366,-0.5367996,-0.20787798,-0.09865474,-0.5138904,0.2519819
833,8.329999999999867,0.81480366,-0.5367996,-0.20787798,-0.09865474,-0.5138904,0.2519819
834,8.339999999999867,0.81480366,-0.5367996,-0.20787798,-0.09865474,-0.5138904,0.2519819
835,8.349999999999866,0.8054128,-0.5544836,-0.23263553,-0.07315111,-0.46135598,0.21395555
836,8.359999999999866,0.8153525,-0.5680819,-0.23964813,-0.058643065,-0.42470407,0.18463401
837,8.369999999999866,0.80968136,-0.58521706,-0.25214887,-0.03313944,-0.35140023,0.13545936
838,8.379999999999866,0.793156,-0.5843634,-0.2552588,-0.011301007,-0.29260445,0.107359566
839,8.389999999999866,0.78449696,-0.5844243,-0.26660094,0.027183503,-0.17654006,0.07284568
840,8.399999999999865,0.7888875,-0.567899,-0.27501604,0.036651913,-0.106901415,0.02855795
841,8.409999999999865,0.7888875,-0.567899,-0.27501604,0.035277467,-0.07162395,0.0027488936
842,8.419999999999865,0.8127913,-0.55978876,-0.23635526,0.03268129,-0.053297993,0.013591751
843,8.429999999999865,0.822426,-0.5509468,-0.22617173,0.026572637,-0.065515295,0.038026363
844,8.439999999999864,0.81510854,-0.5500321,-0.22867186,0.037415497,-0.06536258,0.06505715
845,8.449999999999864,0.8084618,-0.5496662,-0.24775836,0.06734789,-0.012675454,0.106595986
846,8.459999999999864,0.8022419,-0.5497272,-0.25952733,0.09712757,0.070554934,0.13958271
847,8.469999999999864,0.79894906,-0.54490983,-0.27324766,0.12156218,0.2087632,0.17088956
848,8.479999999999864,0.7927292,-0.5508248,-0.27861384,0.10980303,0.2929099,0.20112738
849,8.489999999999863,0.7998028,-0.54728806,-0.26202747,0.049021937,0.3304781,0.26542094
850,8.499999999999863,0.7968148,-0.55460554,-0.24684367,-0.011301007,0.33261612,0.32375857
851,8.509999999999863,0.8101692,-0.5558861,-0.21647604,-0.041233405,0.3764457,0.36132678
852,8.519999999999863,0.787424,-0.56369144,-0.18007149,0.00076358154,0.32177326,0.35934147
853,8.529999999999863,0.775716,-0.5686307,-0.17574196,0.047036625,0.19517145,0.3747658
854,8.539999999999862,0.772728,-0.5671672,-0.17190027,0.047036625,0.19517145,0.3747658
855,8.549999999999862,0.7532757,-0.5580813,-0.18336436,0.17577648,-0.13607024,0.3744604
856,8.559999999999862,0.7533366,-0.5493003,-0.18934031,0.23380867,-0.22586742,0.4156938
857,8.569999999999862,0.75833696,-0.547349,-0.20489,0.23380867,-0.22586742,0.4156938
858,8.579999999999862,0.8024249,-0.5505809,-0.22879384,0.258396,-0.22296582,0.6053675
859,8.589999999999861,0.8024249,-0.5505809,-0.22879384,0.2576324,-0.19853121,0.6933321
860,8.599999999999861,0.84462243,-0.5407023,-0.2631251,0.25625798,-0.19853121,0.7128797
861,8.60999999999986,0.80870575,-0.52881134,-0.2821506,0.22953261,-0.23151793,0.72509706
862,8.61999999999986,0.80870575,-0.52881134,-0.2821506,0.22953261,-0.23151793,0.72509706
863,8.62999999999986,0.7532757,-0.54216576,-0.23818462,0.19013181,-0.18035796,0.8935431
864,8.63999999999986,0.7496779,-0.564972,-0.21062206,0.19013181,-0.18035796,0.8935431
865,8.64999999999986,0.7601053,-0.59997404,-0.20617057,0.19425514,-0.14844026,0.9851729
866,8.65999999999986,0.7558368,-0.6097917,-0.20952442,0.23044892,-0.25793785,1.0299188
867,8.66999999999986,0.73217684,-0.6460133,-0.2112928,0.25885415,-0.2846632,1.0215194
868,8.67999999999986,0.73217684,-0.6460133,-0.2112928,0.32146785,-0.2770274,0.9914343
869,8.68999999999986,0.71150494,-0.6544894,-0.23476979,0.41263947,-0.17760907,0.9584476
870,8.699999999999859,0.7069315,-0.6711367,-0.25946635,0.48563787,-0.06612616,0.91324353
871,8.709999999999859,0.6950405,-0.6776615,-0.28141886,0.50854534,0.01450805,0.8738427
872,8.719999999999859,0.68333256,-0.6986383,-0.27300373,0.49235737,0.26450464,0.7968737
873,8.729999999999858,0.68333256,-0.6986383,-0.27300373,0.49235737,0.26450464,0.7968737
874,8.739999999999858,0.6707099,-0.711383,-0.27050358,0.45234573,0.3631594,0.8011498
875,8.749999999999858,0.6707099,-0.711383,-0.27050358,0.45234573,0.3631594,0.8011498
876,8.759999999999858,0.6401593,-0.7313841,-0.22281788,0.35613444,0.5335908,0.9098838
877,8.769999999999857,0.64186674,-0.71266353,-0.1606801,0.33826664,0.5543602,0.9868528
878,8.779999999999857,0.65229416,-0.6988823,-0.13976426,0.37125334,0.4802928,1.1059716
879,8.789999999999857,0.6600995,-0.699797,-0.13482493,0.37293324,0.39858958,1.1491902
880,8.799999999999857,0.66638035,-0.72894496,-0.11732392,0.3567453,0.24480425,1.1815661
881,8.809999999999857,0.6752833,-0.7595565,-0.10714039,0.3567453,0.24480425,1.1815661
882,8.819999999999856,0.6752833,-0.7595565,-0.10714039,0.3567453,0.24480425,1.1815661
883,8.829999999999856,0.6687586,-0.83090216,-0.14580119,0.2667954,0.00030543262,1.3703234
884,8.839999999999856,0.6687586,-0.83090216,-0.14580119,0.20998493,0.02076942,1.4213307
885,8.849999999999856,0.66198987,-0.81102294,-0.1636681,0.1518,0.10354166,1.4327844
886,8.859999999999856,0.65278196,-0.78333837,-0.18744996,0.060322944,0.25411993,1.3729197
887,8.869999999999855,0.64644015,-0.76589835,-0.19702369,-0.050701816,0.4558582,1.234406
888,8.879999999999855,0.6299758,-0.76016635,-0.2084268,-0.18600847,0.6768387,1.0552697
889,8.889999999999855,0.5914369,-0.7963879,-0.18501079,-0.34147367,1.0282389,0.7689266
890,8.899999999999855,0.60924286,-0.85376936,-0.17342475,-0.34147367,1.0282389,0.7689266
891,8.909999999999854,0.59832764,-0.9245052,-0.16531453,-0.33276883,1.1572843,0.5899431
892,8.919999999999854,0.5878392,-1.0113395,-0.1853157,-0.33276883,1.1572843,0.5899431
893,8.929999999999854,0.5878392,-1.0113395,-0.1853157,-0.1553125,0.8063421,0.24251351
894,8.939999999999854,0.48850408,-1.0418291,-0.22592781,-0.037873644,0.03894266,0.009162978
895,8.949999999999854,0.48850408,-1.0418291,-0.22592781,-0.037873644,0.03894266,0.009162978
896,8.959999999999853,0.39776713,-0.9412134,-0.28263843,-0.13775012,0.0580322,0.1160644
897,8.969999999999853,0.3690459,-0.8834662,-0.31629896,-0.3295618,0.25137106,0.37950003
898,8.979999999999853,0.39764515,-0.8701117,-0.3108108,-0.53985214,0.3578143,0.6041457
899,8.989999999999853,0.47222266,-0.9006623,-0.24531919,-0.80939645,0.37720928,0.795652
900,8.999999999999853,0.52545744,-0.9136509,-0.14574021,-0.9408852,0.39843684,0.8374963
901,9.009999999999852,0.5572277,-0.9097482,-0.061649937,-0.9682214,0.46410486,0.8089383
902,9.019999999999852,0.5807656,-0.9127362,0.028294332,-0.88407475,0.5670357,0.7527387
903,9.029999999999852,0.58637565,-0.8715753,0.077077664,-0.88407475,0.5670357,0.7527387
904,9.039999999999852,0.5712528,-0.84151256,0.059515666,-0.3555236,0.54336464,0.66691214
905,9.049999999999851,0.5483857,-0.79742455,0.028965104,-0.009315695,0.064446285,0.54626626
906,9.059999999999851,0.5041148,-0.7480924,-0.01103723,-0.009315695,0.064446285,0.54626626
907,9.069999999999851,0.37398523,-0.69784564,-0.042197585,0.07803804,-0.55771995,0.44409904
908,9.07999999999985,0.34172726,-0.70235807,-0.027379647,-0.011453724,-0.7509061,0.5030475
909,9.08999999999985,0.34172726,-0.70235807,-0.027379647,-0.0759,-0.71578133,0.5893322
910,9.09999999999985,0.36246017,-0.7153466,-0.0001829375,-0.0759,-0.71578133,0.5893322
911,9.10999999999985,0.538629,-0.79150957,-0.073540874,-0.095753126,-0.16310102,0.5355761
912,9.11999999999985,0.5932663,-0.8347438,-0.14891112,-0.0106901415,0.16279559,0.2264783
913,9.12999999999985,0.5613132,-0.88919824,-0.18805976,0.092240654,0.29840767,-0.14889841
914,9.13999999999985,0.44886765,-0.9606048,-0.20879267,0.092240654,0.29840767,-0.14889841
915,9.14999999999985,0.31062788,-0.98877716,-0.2112928,0.3222314,-0.032223143,-0.93523467
916,9.15999999999985,0.31062788,-0.98877716,-0.2112928,0.3222314,-0.032223143,-0.93523467
917,9.169999999999849,0.07927292,-0.95651925,-0.20281671,0.45249844,-0.49495357,-0.8052731
918,9.179999999999849,0.097017854,-0.9004184,-0.20476803,0.45249844,-0.49495357,-0.8052731
919,9.189999999999849,0.17519315,-0.8511472,-0.20165811,0.40576723,-0.59696805,-0.23136522
920,9.199999999999848,0.26306412,-0.8038274,-0.19452354,0.33857206,-0.5337435,-0.12568553
921,9.209999999999848,0.3342878,-0.76675206,-0.17525412,0.25809056,-0.4560109,-0.09101892
922,9.219999999999848,0.40410894,-0.7374821,-0.15299673,0.16432275,-0.35414913,-0.111635625
923,9.229999999999848,0.49423614,-0.75089747,-0.0954324,0.11133019,-0.24969117,-0.2003638
924,9.239999999999847,0.49423614,-0.75089747,-0.0954324,0.10293079,-0.18402316,-0.31322116
925,9.249999999999847,0.5116762,-0.7711426,-0.06866254,0.122020334,-0.160963,-0.46502116
926,9.259999999999847,0.5135056,-0.7823017,-0.051466417,0.15195273,-0.16325374,-0.54183745
927,9.269999999999847,0.48484537,-0.8131572,-0.04164877,0.26389378,-0.14446963,-0.64644814
928,9.279999999999847,0.48484537,-0.8131572,-0.04164877,0.36651915,-0.101098195,-0.66553766
929,9.289999999999846,0.48484537,-0.8131572,-0.04164877,0.43203443,-0.01282817,-0.65316767
930,9.299999999999846,0.44679436,-0.8496837,-0.116592176,0.49449542,0.13164146,-0.63148195
931,9.309999999999846,0.43886706,-0.8620015,-0.14330104,0.6711882,0.2576324,-0.45341474
932,9.319999999999846,0.45911217,-0.857611,-0.17147341,0.6711882,0.2576324,-0.45341474
933,9.329999999999846,0.47271052,-0.85700125,-0.1674488,0.6366743,-0.012064588,-0.26419923
934,9.339999999999845,0.5091151,-0.8450493,-0.16232654,0.56153786,-0.15653422,-0.20647246
935,9.349999999999845,0.55905706,-0.8344999,-0.14293517,0.56153786,-0.15653422,-0.20647246
936,9.359999999999845,0.61345047,-0.8272434,-0.12494631,0.40943244,-0.22953261,-0.2817616
937,9.369999999999845,0.73553073,-0.84114665,-0.13915445,0.27580565,-0.1966986,-0.5299256
938,9.379999999999844,0.7954732,-0.85651344,-0.17537609,0.13500121,-0.16615535,-0.7829765
939,9.389999999999844,0.8496837,-0.9100531,-0.25361237,-0.049785517,-0.12629639,-1.0693196
940,9.399999999999844,0.8067544,-0.99237496,-0.30129808,-0.27030787,-0.100029185,-1.3203852
941,9.409999999999844,0.58521706,-1.0706112,-0.12811723,-0.48258355,0.03756821,-1.4298828
942,9.419999999999844,0.58521706,-1.0706112,-0.12811723,-0.49678615,0.2744312,-1.3967434
943,9.429999999999843,0.56234986,-0.82614577,-0.13427612,-0.44929138,0.474795,-1.4205672
944,9.439999999999843,0.56234986,-0.82614577,-0.13427612,-0.44119743,0.45753807,-1.5183055
945,9.449999999999843,0.5323481,-0.76089805,-0.09781059,-0.41355577,0.42103887,-1.5888605
946,9.459999999999843,0.55594707,-0.7232129,-0.08781,-0.3465133,0.35796702,-1.6603317
947,9.469999999999843,0.6027791,-0.7209567,-0.094212815,-0.29031372,0.2848159,-1.7453947
948,9.479999999999842,0.6661974,-0.77089864,-0.120738745,-0.1994475,0.13744467,-1.9924897
949,9.489999999999842,0.6661974,-0.77089864,-0.120738745,-0.17440203,0.11056661,-2.0522017
950,9.499999999999842,0.7032117,-0.74358,-0.1806203,-0.19333886,0.05421429,-2.0900755
951,9.509999999999842,0.7048582,-0.7004677,-0.12561709,-0.23258694,0.043066,-2.0804543
952,9.519999999999841,0.7224202,-0.66522175,-0.102445,-0.23884831,0.16035213,-2.006387
953,9.529999999999841,0.7712035,-0.62357295,-0.12781233,-0.24297164,0.30085114,-1.8845193
954,9.539999999999841,0.8051689,-0.59607136,-0.1331785,-0.268628,0.33750305,-1.7405078
955,9.54999999999984,0.82828003,-0.5793021,-0.11464083,-0.28069258,0.3182608,-1.5361733
956,9.55999999999984,0.84992766,-0.556191,-0.098603316,-0.25335637,0.19318613,-1.2370021
957,9.56999999999984,0.86614805,-0.54234874,-0.0693943,-0.19364429,0.053450707,-1.0036516
958,9.57999999999984,0.87663656,-0.5334458,-0.050856624,-0.19364429,0.053450707,-1.0036516
959,9.58999999999984,0.8481592,-0.5434463,-0.0705529,0.04886922,-0.21166481,-0.6609562
960,9.59999999999984,0.8240115,-0.5432024,-0.096591,0.10170906,-0.31978795,-0.54641896
961,9.60999999999984,0.8002906,-0.544361,-0.110006414,0.0804815,-0.31749722,-0.48166725
962,9.61999999999984,0.7996198,-0.55466646,-0.13421515,0.029932396,-0.27382034,-0.4821254
963,9.62999999999984,0.78425306,-0.5660696,-0.158058,-0.043829583,-0.1815797,-0.5479461
964,9.639999999999839,0.7732159,-0.5871074,-0.15994836,-0.11133019,-0.10644327,-0.6207918
965,9.649999999999839,0.7701669,-0.617719,-0.12793429,-0.17394388,-0.04596761,-0.6936375
966,9.659999999999838,0.7701669,-0.617719,-0.12793429,-0.17394388,-0.04596761,-0.6936375
967,9.669999999999838,0.863404,-0.5975958,-0.1062867,-0.18448131,-0.22067507,-0.7504479
968,9.679999999999838,0.863404,-0.5975958,-0.1062867,-0.18448131,-0.22067507,-0.7504479
969,9.689999999999838,0.863404,-0.5975958,-0.1062867,-0.18448131,-0.22067507,-0.7504479
970,9.699999999999838,0.8624893,-0.58637565,-0.114701815,-0.12721269,-0.3191771,-0.7704538
971,9.709999999999837,0.8620625,-0.5397266,-0.15183812,-0.053603426,-0.34681875,-0.75762564
972,9.719999999999837,0.8695629,-0.41850004,-0.19708468,-0.07452556,-0.056046885,-0.5009095
973,9.729999999999837,0.86730665,-0.38044903,-0.18446198,-0.14110987,-0.05513059,-0.43035457
974,9.739999999999837,0.8637699,-0.3731315,-0.1797056,-0.20158553,-0.1994475,-0.38240165
975,9.749999999999837,0.8711484,-0.39825493,-0.1188484,-0.23579398,-0.39492437,-0.33414328
976,9.759999999999836,0.8711484,-0.39825493,-0.1188484,-0.23090707,-0.61926466,-0.26465738
977,9.769999999999836,0.8711484,-0.39825493,-0.1188484,-0.23090707,-0.61926466,-0.26465738
978,9.779999999999836,0.8474275,-0.500578,-0.07396773,-0.21135938,-0.8168796,-0.19639318
979,9.789999999999836,0.85712314,-0.5776557,-0.12122658,-0.13576481,-1.225243,-0.22235495
980,9.799999999999836,0.85212296,-0.5827169,-0.15433827,-0.10949759,-1.2618948,-0.2845105
981,9.809999999999835,0.799132,-0.5739969,-0.22757424,-0.048716504,-1.0835222,-0.42424592
982,9.819999999999835,0.7655325,-0.48307696,-0.3795953,0.03634648,-0.6398814,-0.47448957
983,9.829999999999835,0.7655325,-0.48307696,-0.3795953,0.09132435,-0.20005837,-0.3915646
984,9.839999999999835,0.83754885,-0.45002624,-0.38709575,0.09682214,0.105374254,-0.26435193
985,9.849999999999834,0.98054504,-0.46978348,-0.29428545,0.04841107,0.30650163,-0.21777347
986,9.859999999999834,0.9757277,-0.49106526,-0.23800169,0.016493361,0.36361754,-0.28787026
987,9.869999999999834,0.88968605,-0.5095419,-0.20306063,-0.023823744,0.37064248,-0.29428434
988,9.879999999999834,0.83090216,-0.50588316,-0.1759249,-0.07391469,0.30573806,-0.23564127
989,9.889999999999834,0.79394877,-0.4841136,-0.14976484,-0.12629639,0.19074267,-0.1339322
990,9.899999999999833,0.79394877,-0.4841136,-0.14976484,-0.12629639,0.19074267,-0.1339322
991,9.909999999999833,0.7866313,-0.45008725,-0.1653755,-0.14584407,0.0346666,0.04520403
992,9.919999999999833,0.7929121,-0.4242321,-0.17732742,-0.13836098,-0.017562376,0.09560041
993,9.929999999999833,0.8253531,-0.38947394,-0.17744938,-0.0936151,-0.1441642,0.14905111
994,9.939999999999833,0.8253531,-0.38947394,-0.17744938,-0.0936151,-0.1441642,0.14905111
995,9.949999999999832,0.87017274,-0.38185155,-0.1770835,0.0076358155,-0.2180789,0.12293663
996,9.959999999999832,0.90572363,-0.3699606,-0.18464492,0.12217305,-0.24801129,0.054061573
997,9.969999999999832,0.8994427,-0.3456909,-0.2040363,0.25335637,-0.19960022,-0.03573562
998,9.979999999999832,0.77498424,-0.4279518,-0.2388554,0.33292156,-0.09407325,0.058490347
999,9.989999999999831,0.7882777,-0.45130682,-0.23452587,0.3100141,-0.06352998,0.14019357
1000,9.999999999999831,0.82779217,-0.4617343,-0.23159887,0.24953845,-0.032070424,0.19715676
