id,timestamp,acc_x,acc_y,acc_z,gyro_x,gyro_y,gyro_z
0,0,-0.031892106,0.053966567,0.14061797,-0.90224797,1.8504635,-1.3180945
1,0.01,-0.042075627,0.06799178,0.12720254,-0.7687739,1.6354389,-1.2516629
2,0.02,-0.04768571,0.10403045,0.14610608,-0.61483586,1.2618948,-1.1133019
3,0.03,-0.08482202,0.11909231,0.17775428,-0.37308595,0.7108944,-0.88071495
4,0.04,-0.09457869,0.12342183,0.17860797,-0.24190263,0.43233988,-0.7502952
5,0.05,-0.10201815,0.12628786,0.18775485,-0.10430524,0.13927728,-0.6221663
6,0.060000000000000005,-0.09957898,0.12390967,0.19220634,0.18417588,-0.46395215,-0.37568212
7,0.07,-0.09640807,0.10049367,0.17257105,0.3987423,-0.94806284,-0.19257528
8,0.08,-0.081468165,0.095615335,0.15177715,0.51053065,-1.218218,-0.09773844
9,0.09,-0.06280854,0.07408969,0.10104248,0.64599,-1.5894713,0.041691553
10,0.09999999999999999,-0.051771317,0.06872352,0.072016396,0.66996646,-1.725847,0.09987647
11,0.10999999999999999,-0.028294332,0.060918186,0.017257104,0.6704246,-1.8258762,0.1516473
12,0.11999999999999998,-0.028294332,0.060918186,0.017257104,0.6411031,-1.8419114,0.17486018
13,0.12999999999999998,-0.02268425,0.05646671,-0.0026221042,0.57726765,-1.8264871,0.18417588
14,0.13999999999999999,-0.023111105,0.05110054,-0.0069516255,-0.1704314,-2.7490463,0.20280726
15,0.15,-0.09799352,0.050612707,-1.2142782,-0.1704314,-2.7490463,0.20280726
16,0.16,-0.11732392,-0.11640923,-0.5374704,-3.4049628,-8.86167,0.7678576
17,0.17,-0.11732392,-0.11640923,-0.5374704,-3.4049628,-8.86167,0.7678576
18,0.18000000000000002,0.06671121,-0.13354437,0.13561767,-3.277292,-9.241016,1.2044735
19,0.19000000000000003,0.10488417,-0.17568098,0.14628904,-3.0474539,-8.743925,1.2773192
20,0.20000000000000004,1.0511589,-1.7002821,-4.203538,-3.3513594,-4.358218,0.98700553
21,0.21000000000000005,0.96450746,-2.2470822,-3.2932408,-2.9498682,10.080651,-0.25778514
22,0.22000000000000006,0.96450746,-2.2470822,-3.2932408,-2.9498682,10.080651,-0.25778514
23,0.23000000000000007,0.43569615,-1.5655181,1.4989899,1.1672108,1.5712981,0.627664
24,0.24000000000000007,0.35563052,-1.2422066,1.4157534,2.2032382,0.4454735,0.8970556
25,0.25000000000000006,0.23879443,-1.0584763,0.74370193,4.033238,-0.52626044,1.9585867
26,0.26000000000000006,2.4756322,-4.459894,0.8045591,4.033238,-0.52626044,1.9585867
27,0.2700000000000001,2.4756322,-4.459894,0.8045591,4.033238,-0.52626044,1.9585867
28,0.2800000000000001,2.4756322,-4.459894,0.8045591,2.6681066,4.791016,0.7414377
29,0.2900000000000001,3.4445302,-7.40903,1.2195834,1.3084733,3.3061554,-0.45142943
30,0.3000000000000001,0.79809535,-2.371114,-0.07561417,2.3625214,-1.2197452,-1.53205
31,0.3100000000000001,0.79809535,-2.371114,-0.07561417,4.5653014,-5.73465,-2.563954
32,0.3200000000000001,0.14982581,-1.5943004,-0.34752026,4.5653014,-5.73465,-2.563954
33,0.3300000000000001,-0.15391143,-1.009693,-0.5936322,5.62836,-7.0771794,-2.8661797
34,0.34000000000000014,-0.23409903,-0.5514346,-0.8441956,5.560859,-5.536119,-2.1461222
35,0.35000000000000014,-0.19763349,0.15281379,-1.5064293,3.1202996,-4.043317,-1.7137824
36,0.36000000000000015,-0.19763349,0.15281379,-1.5064293,3.1202996,-4.043317,-1.7137824
37,0.37000000000000016,-0.17305888,0.17025384,-1.2856847,1.7560849,-3.7895026,-1.6928604
38,0.38000000000000017,-0.17305888,0.17025384,-1.2856847,1.7560849,-3.7895026,-1.6928604
39,0.3900000000000002,-0.017135147,0.0661624,-0.32818988,0.39904773,-3.4978144,-1.7111863
40,0.4000000000000002,-0.012256813,0.046283185,-0.016525354,-0.59406644,-2.189952,-2.0164661
41,0.4100000000000002,-0.009939604,0.041953668,-0.0028050416,-0.8533788,-1.2959507,-2.1868975
42,0.4200000000000002,-0.013293459,0.03506302,-0.0042075627,-0.8533788,-1.2959507,-2.1868975
43,0.4300000000000002,-0.032684833,0.023720896,-0.012988563,-0.9932669,-0.603993,-2.4414756
44,0.4400000000000002,-0.14897211,-0.022135438,0.0482955,-1.0207558,0.01450805,-2.5237896
45,0.45000000000000023,-0.21982989,-0.006768687,0.104396336,-0.97142845,0.2724459,-2.5072963
46,0.46000000000000024,-0.21982989,-0.006768687,0.104396336,-0.97142845,0.2724459,-2.5072963
47,0.47000000000000025,-4.7033234,0.34282488,0.9971314,0.21395555,-2.0361667,0.9753991
48,0.48000000000000026,-2.3071468,0.22556195,0.27605268,0.9272934,-4.0291142,4.540867
49,0.49000000000000027,-0.70400447,0.10512808,-0.093359105,1.0422888,-4.719545,5.8864503
50,0.5000000000000002,-0.70400447,0.10512808,-0.093359105,1.0073168,-4.4377832,5.8311667
51,0.5100000000000002,-0.47704002,0.19738956,-0.031770147,1.0297661,-3.4651332,4.7522264
52,0.5200000000000002,-0.30026144,0.35935023,0.13073933,1.4763086,-1.8481728,2.9179506
53,0.5300000000000002,-0.124580435,0.27147925,0.062442668,2.1978931,0.8022188,0.30466905
54,0.5400000000000003,0.01243975,0.09671296,0.013842272,2.175291,1.4312572,-0.8529206
55,0.5500000000000003,0.021037813,-0.00804925,-0.0032928751,2.0549507,1.6455183,-1.4932601
56,0.5600000000000003,0.021037813,-0.00804925,-0.0032928751,2.0549507,1.6455183,-1.4932601
57,0.5700000000000003,0.021037813,-0.00804925,-0.0032928751,1.8156443,1.8752036,-1.9323195
58,0.5800000000000003,-0.05939371,-0.05799119,-0.07219934,1.2954924,2.92299,-1.9081903
59,0.5900000000000003,-0.12915388,-0.10006681,-0.13915445,0.6239988,4.3815837,-1.4926492
60,0.6000000000000003,-1.1491524,-0.95408005,-0.040429186,-0.420428,6.9291973,-0.30833423
61,0.6100000000000003,-1.449292,-3.9965746,-0.50307816,-3.7604864,14.403286,4.0268235
62,0.6200000000000003,-0.3591673,-6.605508,0.54960525,-6.8864365,19.10481,6.412405
63,0.6300000000000003,1.6912572,-10.481954,1.9096847,-9.013622,19.142685,5.6392026
64,0.6400000000000003,2.8371167,-11.570249,2.2790353,-5.610339,12.077264,1.6893479
65,0.6500000000000004,2.7360134,-6.586177,1.2289742,-5.610339,12.077264,1.6893479
66,0.6600000000000004,1.2252544,-2.7680883,0.39112037,1.5668694,-0.6808093,-3.3547192
67,0.6700000000000004,0.6836984,-1.8451078,0.18623038,1.5822937,-1.5906931,-3.7669005
68,0.6800000000000004,0.19397473,-0.75162923,0.013415418,0.79168135,-2.2104158,-3.5027013
69,0.6900000000000004,0.112567544,-0.5392997,-0.021708583,-0.094989546,-1.7939585,-2.813798
70,0.7000000000000004,0.013720313,-0.03664848,-0.083907336,-0.7629707,-1.3920091,-2.2484422
71,0.7100000000000004,0.0009756667,0.06768687,-0.040978,-1.3567317,-0.8481864,-1.7675385
72,0.7200000000000004,-0.0033538544,0.10768921,-0.021525647,-1.5929838,-0.56123245,-1.5303701
73,0.7300000000000004,0.032745812,0.21476863,0.015000875,-1.9197967,-0.12812899,-1.1145236
74,0.7400000000000004,0.031160356,0.23233064,0.012805625,-1.982105,-0.13423763,-0.9289733
75,0.7500000000000004,0.031160356,0.23233064,0.012805625,-1.982105,-0.13423763,-0.9289733
76,0.7600000000000005,0.031160356,0.23233064,0.012805625,-1.982105,-0.13423763,-0.9289733
77,0.7700000000000005,0.042624436,0.3158111,0.036770437,-2.3806946,1.2461652,-0.13225232
78,0.7800000000000005,0.03305071,0.30306646,0.029026084,-2.5297456,1.7620409,0.1656972
79,0.7900000000000005,-0.017744938,0.32026258,0.025367333,-2.8333457,2.1502457,0.66614854
80,0.8000000000000005,-0.073845774,0.32093337,0.18318142,-3.215289,2.1917844,1.4037683
81,0.8100000000000005,-0.06067427,0.26763758,0.41203624,-3.215289,2.1917844,1.4037683
82,0.8200000000000005,-0.06067427,0.26763758,0.41203624,-3.1731396,1.7119498,1.9381227
83,0.8300000000000005,0.044453815,0.27385744,0.47295445,-2.5518897,0.04718934,2.6193902
84,0.8400000000000005,0.14628904,0.3972183,0.60162044,-1.9631681,-0.7664832,2.9286406
85,0.8500000000000005,0.21678093,0.3954499,0.67010003,-1.2066116,-1.7574593,3.0586023
86,0.8600000000000005,0.24422157,0.4054505,0.5513126,-0.21960606,-2.842356,3.0691397
87,0.8700000000000006,0.24977067,0.41923177,0.42203683,0.57711494,-3.4235942,2.9005408
88,0.8800000000000006,0.24916087,0.42343935,0.38008317,0.95524055,-3.5373678,2.7111726
89,0.8900000000000006,0.28166276,0.39703536,0.29202923,1.5622878,-3.339295,2.1197023
90,0.9000000000000006,0.17348573,0.3217261,0.10866488,1.8628336,-3.06578,1.6824756
91,0.9100000000000006,0.17348573,0.3217261,0.10866488,2.0346394,-2.777299,1.2505939
92,0.9200000000000006,0.12848312,0.2895291,0.048173543,2.0361667,-2.6105325,0.98440933
93,0.9300000000000006,0.10360361,0.26879618,0.014086187,1.9162843,-2.4152086,0.70386946
94,0.9400000000000006,0.10360361,0.26879618,0.014086187,1.9162843,-2.4152086,0.70386946
95,0.9500000000000006,0.083907336,0.20245083,0.022989146,1.9162843,-2.4152086,0.70386946
96,0.9600000000000006,-0.3456909,-2.2321424,-5.0360255,-0.52626044,0.9317222,-0.33337972
97,0.9700000000000006,-0.3456909,-2.2321424,-5.0360255,-7.0808444,8.075027,-0.93126404
98,0.9800000000000006,-0.3456909,-2.2321424,-5.0360255,-7.0808444,8.075027,-0.93126404
99,0.9900000000000007,0.21726878,-0.37532678,0.7385187,-9.072876,7.1116934,-3.1590896
100,1.0000000000000007,-0.11165286,-2.6235676,-4.0176735,-9.072876,7.1116934,-3.1590896
101,1.0100000000000007,1.0866487,-4.472517,-6.692403,-13.877178,-5.670051,-2.369699
102,1.0200000000000007,1.4561216,-7.23091,-6.0222416,-4.900361,14.636332,-3.019354
103,1.0300000000000007,1.4561216,-7.23091,-6.0222416,-4.900361,14.636332,-3.019354
104,1.0400000000000007,0.547349,-2.4037378,1.6029594,8.428108,2.8893926,0.92011577
105,1.0500000000000007,0.41953668,-2.338185,1.024877,9.461844,-0.34498614,1.5932893
106,1.0600000000000007,0.30276155,-2.3633087,0.57131386,8.693529,-2.942996,4.2024474
107,1.0700000000000007,1.1891547,-2.9255364,0.4438674,8.073958,-4.761542,5.2629094
108,1.0800000000000007,2.06012,-4.545387,0.33410487,5.678145,-7.885354,5.345071
109,1.0900000000000007,2.5596006,-4.4967256,0.41648772,3.8362339,-7.986147,4.56072
110,1.1000000000000008,2.3079395,-4.113167,0.44673342,1.7612772,-5.1567717,1.2709051
111,1.1100000000000008,1.5651523,-2.4482527,0.53436047,1.7612772,-5.1567717,1.2709051
112,1.1200000000000008,0.68650347,-0.9564582,0.08878566,1.6287194,-4.2143593,0.28496864
113,1.1300000000000008,0.36258212,-0.59704703,-0.12567806,1.5253305,-2.2707388,-1.310306
114,1.1400000000000008,-0.11305538,0.37898555,-2.113172,1.5253305,-2.2707388,-1.310306
115,1.1500000000000008,-0.11305538,0.37898555,-2.113172,3.1587842,3.0349312,-1.8541287
116,1.1600000000000008,-0.2333063,0.32837284,-2.1468937,2.5418103,2.573117,-1.956296
117,1.1700000000000008,-0.15641156,0.053112853,-0.7791918,1.171945,0.12064589,-2.0393736
118,1.1800000000000008,-0.10024975,-0.017440042,-0.2514781,-0.21013765,-2.8237245,-2.0971005
119,1.1900000000000008,-0.07043094,-0.02555027,0.04469773,-0.21013765,-2.8237245,-2.0971005
120,1.2000000000000008,-0.071162686,-0.016708292,0.06213777,-0.31520647,-2.4932466,-1.9523253
121,1.2100000000000009,-0.071162686,-0.016708292,0.06213777,-0.29642236,-2.2770002,-1.890628
122,1.2200000000000009,-0.08732217,-0.014878917,0.06488183,-0.2499966,-1.9909625,-1.815797
123,1.2300000000000009,-0.104396336,-0.017866896,0.068174705,-0.2499966,-1.9909625,-1.815797
124,1.2400000000000009,-0.1267147,-0.03945352,0.075980045,-0.2499966,-1.9909625,-1.815797
125,1.2500000000000009,-0.11207971,-0.055430062,0.08024859,-0.07040222,-0.8555168,-1.5661057
126,1.260000000000001,-0.11708001,-0.07305304,0.057015523,-0.038331795,-0.4280638,-1.5259414
127,1.270000000000001,-0.1340322,-0.09171267,0.057564333,-0.016035212,0.1470658,-1.4915802
128,1.280000000000001,-0.2566613,-0.09896919,0.13976426,-0.021380283,0.5204572,-1.4698945
129,1.290000000000001,-0.31135964,-0.1030548,0.20062146,0.13698652,1.4827226,-1.1180362
130,1.300000000000001,-0.31135964,-0.1030548,0.20062146,0.13698652,1.4827226,-1.1180362
131,1.310000000000001,-0.3682532,-0.097444706,0.23263553,0.35369098,1.877647,-0.7819075
132,1.320000000000001,-0.46557596,-0.07732158,0.3050178,0.5342017,2.029447,-0.452193
133,1.330000000000001,-0.5533859,-0.06829667,0.40538952,0.7150178,2.0480785,-0.18081611
134,1.340000000000001,-0.5774727,-0.1074453,0.40221858,1.1980594,1.7540996,0.35918877
135,1.350000000000001,-0.5774727,-0.1074453,0.40221858,1.616044,1.3327552,0.8553641
136,1.360000000000001,-0.64826953,-0.16324124,0.29794422,2.0034852,1.2227995,1.5445728
137,1.370000000000001,-0.7059558,-0.19745055,0.23733091,2.031585,1.5077682,1.8261817
138,1.380000000000001,-0.734738,-0.26007617,0.07604102,1.8889481,1.7982346,2.3747387
139,1.390000000000001,-0.5491174,-0.28062615,-0.0022562293,1.6374242,1.7800614,2.663067
140,1.400000000000001,-0.5177131,-0.35117903,-0.025428312,1.2502885,1.9304869,2.8948903
141,1.410000000000001,-1.0318894,-0.6465011,0.042197585,0.7629707,2.5509732,3.5181258
142,1.420000000000001,-1.563201,-0.9703005,0.09299323,0.5525276,2.912911,4.035223
143,1.430000000000001,-2.4244096,-3.2445185,-0.43100074,-1.2756393,3.3547192,5.8362064
144,1.440000000000001,-1.8941958,-6.1876783,-0.53375065,-5.256648,0.8686504,5.696471
145,1.450000000000001,0.043783043,-8.441712,-1.9480404,-8.42933,-4.414112,4.46741
146,1.460000000000001,0.57863134,-9.707396,0.035733793,-8.616101,-21.007961,3.6781723
147,1.470000000000001,0.8954181,-7.4948883,1.0433536,-1.7212656,-29.223793,3.2368221
148,1.480000000000001,2.265376,-3.4203827,-7.139868,3.084564,-16.709913,0.44593164
149,1.490000000000001,1.6408274,-2.1950061,-3.9965746,2.7026205,-11.148291,0.01817324
150,1.500000000000001,0.50045604,-1.0840267,-0.27184513,1.1160508,5.370727,-1.6575829
151,1.5100000000000011,0.3413004,-0.6515624,-0.06384519,0.8707884,7.2732673,-2.4303274
152,1.5200000000000011,0.25044146,-0.44563577,0.033111688,0.8237518,7.7167554,-2.7247643
153,1.5300000000000011,0.12842213,-0.10683551,0.14470357,1.0096076,7.815257,-2.9798007
154,1.5400000000000011,0.013049542,0.004756375,0.058844898,1.0096076,7.815257,-2.9798007
155,1.5500000000000012,0.02414775,0.04036821,0.05213719,1.5092953,7.3856664,-2.6360362
156,1.5600000000000012,0.02414775,0.04036821,0.05213719,1.5354098,7.343364,-2.4326181
157,1.5700000000000012,-0.010549396,0.08787098,0.0307335,1.551445,7.1423893,-2.1868975
158,1.5800000000000012,-0.0336605,0.10921369,0.040978,1.5746579,6.791447,-1.9382755
159,1.5900000000000012,-0.07085779,0.1411058,0.03585575,1.5778649,6.3621616,-1.6942347
160,1.6000000000000012,-0.0892735,0.1516552,0.019452354,1.4891367,5.6822686,-1.350623
161,1.6100000000000012,-0.093481064,0.13549572,0.009878625,1.3695599,5.102252,-1.0908526
162,1.6200000000000012,-0.13476396,0.17604686,-0.029574897,1.1565206,4.364174,-0.7771733
163,1.6300000000000012,-0.16842447,0.2215983,-0.054820273,0.82650065,3.5605807,-0.47876564
164,1.6400000000000012,-0.19988972,0.24464841,-0.091956586,0.27091873,2.3701572,-0.06994407
165,1.6500000000000012,-0.21495157,0.2596493,-0.1030548,-0.40591997,1.00075,0.3791946
166,1.6600000000000013,-0.20092636,0.25391725,-0.09061504,-0.8116872,0.1965459,0.64660084
167,1.6700000000000013,-0.18446198,0.25013652,-0.07969977,-1.4972308,-1.1679744,1.0968086
168,1.6800000000000013,-0.13762999,0.21007323,-0.056344748,-1.9637791,-2.0761783,1.4034629
169,1.6900000000000013,-0.061954834,0.13994719,-0.029391957,-2.6667323,-3.321427,1.9139935
170,1.7000000000000013,-0.02420873,0.10171325,-0.025123417,-2.6667323,-3.321427,1.9139935
171,1.7100000000000013,-0.02420873,0.10171325,-0.025123417,-2.6667323,-3.321427,1.9139935
172,1.7200000000000013,-0.02420873,0.10171325,-0.025123417,-2.6667323,-3.321427,1.9139935
173,1.7300000000000013,0.016159479,0.06451596,0.004024625,-2.9303205,-3.6250272,2.1830797
174,1.7400000000000013,0.022928167,0.112567544,0.07805333,-3.0274482,-3.8061485,2.2591324
175,1.7500000000000013,0.022928167,0.112567544,0.07805333,-3.0274482,-3.8061485,2.2591324
176,1.7600000000000013,0.037014354,0.15177715,0.11037229,-3.0219505,-3.4855971,1.9679024
177,1.7700000000000014,0.018293751,0.094517715,0.21909817,-3.0149255,-3.004846,1.7994562
178,1.7800000000000014,-0.0014635,0.021098793,0.17836407,-3.0338624,-2.4998133,1.6652187
179,1.7900000000000014,-0.005488125,-0.00219525,0.21269535,-3.0578387,-2.0059288,1.5541939
180,1.8000000000000014,-0.0078053335,-0.091224834,0.7010775,-2.7687466,-1.2901474,1.4477507
181,1.8100000000000014,0.005366167,-0.14366692,0.8836491,-2.0358613,-0.6070473,1.3321444
182,1.8200000000000014,0.011342125,-0.18244967,0.78961927,-1.42973,-0.17867808,1.2449434
183,1.8300000000000014,0.023598937,-0.27593073,0.34697145,-0.4167628,0.5526803,1.1308643
184,1.8400000000000014,-0.7512633,-2.9513917,-9.158766,-5.936236,-8.191703,2.2710443
185,1.8500000000000014,0.13927643,-1.1626288,0.36636284,-9.657932,-15.154345,4.245055
186,1.8600000000000014,-0.51698136,-2.1723218,-1.0400606,-7.7376776,-16.9622,5.2758904
187,1.8700000000000014,-1.0462805,-3.0861557,1.4380107,-0.15363261,-22.51634,5.6022453
188,1.8800000000000014,-3.4970942,-10.792153,-7.157186,11.254887,-3.1123583,1.9315559
189,1.8900000000000015,-3.4970942,-10.792153,-7.157186,4.985729,12.343906,-2.4130704
190,1.9000000000000015,-2.8544347,-8.524765,-1.1568967,0.6375906,15.240171,-6.063754
191,1.9100000000000015,-2.1873229,-6.2445717,-0.9774961,1.0842859,14.024702,-6.89392
192,1.9200000000000015,-0.25745404,-2.1407955,-0.23476979,2.9400945,7.550905,-5.741064
193,1.9300000000000015,0.052076213,-1.2627566,-0.12549512,3.2733214,6.820463,-5.842468
194,1.9400000000000015,0.122934,-0.8909056,-0.11811664,3.610061,5.9910607,-6.0032783
195,1.9500000000000015,0.08439517,-0.57106996,-0.009878625,3.929849,5.5730762,-6.0839124
196,1.9600000000000015,-0.005000292,-0.44008666,-0.016769271,4.1001277,5.3630915,-6.0220623
197,1.9700000000000015,-0.048600398,-0.28495565,-0.04006331,4.415487,5.0129128,-5.667455
198,1.9800000000000015,-0.02042802,-0.25800288,-0.043539125,4.5039096,4.8989863,-5.542991
199,1.9900000000000015,0.01683025,-0.22019579,-0.040246252,4.725348,4.5517097,-5.250234
200,2.0000000000000013,0.014208145,-0.21208555,-0.077382565,4.8565316,4.21833,-5.0535355
201,2.010000000000001,0.00512225,-0.20732918,-0.096042186,4.8565316,4.21833,-5.0535355
202,2.020000000000001,0.00512225,-0.20732918,-0.096042186,4.9052477,4.0150647,-4.93854
203,2.0300000000000007,-0.017135147,-0.18659624,-0.12769037,4.9397616,3.4176383,-4.6324964
204,2.0400000000000005,-0.058540005,-0.13677627,-0.15799703,4.805677,2.6470318,-4.3499713
205,2.0500000000000003,-0.083053626,-0.11354321,-0.16092403,4.65067,2.1252003,-4.1861067
206,2.06,-0.14513041,-0.07994369,-0.20976834,4.4431286,1.5833627,-4.01033
207,2.07,-0.2280621,-0.025001459,-0.23513566,3.9999456,0.6375906,-3.6690094
208,2.0799999999999996,-0.3233725,0.07860215,-0.2748941,3.6160169,-0.13698652,-3.4125986
209,2.0899999999999994,-0.3233725,0.07860215,-0.2748941,3.0611985,-1.0407617,-3.0821207
210,2.099999999999999,-0.40953606,0.10884781,-0.25074634,2.6473372,-1.6105462,-2.7924178
211,2.109999999999999,-0.52850646,0.13226382,-0.313189,1.643533,-2.0216584,-1.7351627
212,2.1199999999999988,-0.52850646,0.13226382,-0.313189,1.643533,-2.0216584,-1.7351627
213,2.1299999999999986,-0.88968605,0.2376968,-0.47258857,1.1171198,-1.8422168,-1.1911873
214,2.1399999999999983,-0.91237026,0.30105415,-0.4345985,-0.4361578,-1.3865114,0.7093673
215,2.149999999999998,-0.91237026,0.30105415,-0.4345985,-0.4361578,-1.3865114,0.7093673
216,2.159999999999998,-0.875234,0.286846,-0.3887422,-1.1533136,-1.1565206,1.5467108
217,2.1699999999999977,-0.7057119,0.2506244,-0.30422506,-1.9462167,-0.52305335,2.440712
218,2.1799999999999975,-0.29373667,0.16994894,-0.12171442,-2.0404427,-0.46517387,2.3371704
219,2.1899999999999973,-0.1753151,0.15994836,-0.10921369,-2.0404427,-0.46517387,2.3371704
220,2.199999999999997,-0.1753151,0.15994836,-0.10921369,-2.0033326,-0.73456544,1.5909985
221,2.209999999999997,-0.005061271,0.052807957,-0.110555224,-1.9955441,-0.93783087,1.1673635
222,2.2199999999999966,0.0482955,0.020001167,-0.11403105,-1.9924897,-1.1006265,0.8585711
223,2.2299999999999964,0.091102876,-0.04018527,-0.11817763,-1.9824104,-1.2551754,0.38087448
224,2.239999999999996,0.097871564,-0.09299323,-0.18086421,-2.0195205,-1.1557571,0.103847094
225,2.249999999999996,0.076406896,-0.13397123,-0.29995653,-2.146275,-1.1055133,-0.062308256
226,2.259999999999996,0.49021152,-0.3620943,-0.65601385,-2.4933991,-0.7673995,-0.22861631
227,2.2699999999999956,0.98816746,-1.3008076,-1.1609215,-3.4138205,-9.532858,-0.5983425
228,2.2799999999999954,0.98816746,-1.3008076,-1.1609215,-3.4138205,-9.532858,-0.5983425
229,2.289999999999995,-0.10006681,-1.0725017,-0.084029295,-3.3990068,-12.670567,0.35537085
230,2.299999999999995,0.069638215,-1.3975207,0.20232888,-3.3990068,-12.670567,0.35537085
231,2.3099999999999947,0.069638215,-1.3975207,0.20232888,-3.650378,-11.673329,0.552833
232,2.3199999999999945,1.9955432,-8.354268,1.3091007,-2.392759,-6.8229065,-2.984993
233,2.3299999999999943,3.6345415,-9.592816,0.39392543,1.1236867,10.177473,-0.88086766
234,2.339999999999994,2.783333,-3.7211316,0.051466417,0.01572978,10.653031,-0.5876524
235,2.349999999999994,1.7811406,-1.4334372,-0.13336144,-0.14630222,8.415279,-0.93431836
236,2.3599999999999937,1.7811406,-1.4334372,-0.13336144,-0.14630222,8.415279,-0.93431836
237,2.3699999999999934,0.8992598,-0.10134738,-0.9733495,-1.2724323,-0.22983804,-1.6911805
238,2.3799999999999932,0.5333848,0.057015523,-0.74162865,-2.4071145,-1.8761199,-1.5741998
239,2.389999999999993,0.5333848,0.057015523,-0.74162865,-2.4071145,-1.8761199,-1.5741998
240,2.399999999999993,0.22659859,0.13189794,-0.36746046,-3.552945,-2.1267273,-1.1630874
241,2.4099999999999926,0.080919355,0.13952033,0.017866896,-4.5032988,-1.5522085,-0.6968445
242,2.4199999999999924,0.07719963,0.22556195,0.09524946,-4.739398,-1.0751228,-0.5534439
243,2.429999999999992,-0.0062808543,0.2733696,0.27458918,-4.8085785,-0.91415983,-0.45677447
244,2.439999999999992,-0.0062808543,0.2733696,0.27458918,-4.7116036,-0.95233893,-0.23945917
245,2.4499999999999917,0.073540874,0.2771503,0.5365557,-4.2201624,-1.3723087,0.0627664
246,2.4599999999999915,0.17244908,0.4548436,0.8804172,-3.003777,-2.8420506,0.5375614
247,2.4699999999999913,0.16415593,0.4899676,0.9091384,-2.7878363,-3.1273246,0.62949663
248,2.479999999999991,0.1759249,0.579668,0.74486053,-1.7702875,-4.6421175,1.2305881
249,2.489999999999991,0.20409729,0.68741816,0.56735015,-0.59605175,-6.3572745,2.50638
250,2.4999999999999907,0.17744938,0.71961516,0.4575877,-0.59605175,-6.3572745,2.50638
251,2.5099999999999905,0.20690231,0.7161393,0.39313272,-0.21762075,-6.6663723,3.1326697
252,2.5199999999999902,0.21184163,0.64711094,0.27904066,0.17867808,-6.591236,3.527594
253,2.52999999999999,0.2177566,0.3714851,0.04177073,0.957684,-5.1007247,3.68535
254,2.53999999999999,-0.052076213,0.3374587,-0.30800578,0.990518,-3.6238053,3.4898732
255,2.5499999999999896,-0.1870231,0.3085546,-0.39916962,0.68310004,-1.7313448,3.5022433
256,2.5599999999999894,0.0016464376,0.25477096,-0.2206836,0.27091873,0.3115413,3.4287865
257,2.569999999999989,0.25300255,0.23544057,-0.042502478,0.27091873,0.3115413,3.4287865
258,2.579999999999989,0.36160645,0.20434119,0.081773065,0.08857546,1.3927728,2.4150558
259,2.5899999999999888,0.4027064,0.19306004,0.12378771,0.20372356,1.181108,1.6557503
260,2.5999999999999885,0.3960597,0.19848719,0.15189911,0.300393,0.907593,1.2073752
261,2.6099999999999883,0.37331447,0.2172078,0.12317792,0.52687126,0.1704314,0.31627548
262,2.619999999999988,0.36861908,0.20306063,0.11403105,0.5684101,-0.069027774,0.030085113
263,2.629999999999988,0.2827604,0.2148906,0.014574022,0.57558775,-0.67088276,-0.84223044
264,2.6399999999999877,0.25830775,0.17196125,-0.097200796,0.3724751,-0.6618725,-1.2924381
265,2.6499999999999875,-0.020306062,-0.018232772,-0.649794,0.048716504,-0.017256944,-1.4610369
266,2.6599999999999873,-0.020306062,-0.018232772,-0.649794,-1.7046194,5.8325415,-1.7261524
267,2.669999999999987,-0.020306062,-0.018232772,-0.649794,-1.7046194,5.8325415,-1.7261524
268,2.679999999999987,0.35367918,-0.28855342,-0.5496662,-2.0215058,7.399869,-1.9462167
269,2.6899999999999866,0.59515667,-0.7732159,-1.516369,-1.9814942,9.001252,-2.9092457
270,2.6999999999999864,0.54490983,-1.6353393,-4.261529,-2.6821566,8.978192,-3.114191
271,2.709999999999986,2.0044463,-1.2450726,1.0846975,-2.4132233,2.5787675,-4.8638616
272,2.719999999999986,2.3639183,-2.4450817,1.931637,3.4310775,2.3661866,-3.551265
273,2.7299999999999858,4.44032,-3.520998,1.6411322,5.0333767,3.5573738,-1.5667167
274,2.7399999999999856,5.856439,-4.8157687,0.9222489,5.0333767,3.5573738,-1.5667167
275,2.7499999999999853,7.1414537,-5.060173,1.296783,6.4719644,4.966029,1.3041973
276,2.759999999999985,6.5051966,-4.870955,1.0521955,6.4719644,4.966029,1.3041973
277,2.769999999999985,2.4628875,-3.435749,-0.450819,9.057451,0.5343544,-1.1630874
278,2.7799999999999847,0.93950605,-2.2384233,-0.7537025,9.023396,-2.9782734,-0.8210029
279,2.7899999999999845,0.59155893,-1.5671036,-0.7693132,8.213083,-3.5940256,-0.31948254
280,2.7999999999999843,0.37977824,-1.0702454,-0.74687284,6.8154235,-2.888629,-0.19914207
281,2.809999999999984,0.12061679,-0.7066266,-0.83675617,5.943719,-2.3194554,-0.39171734
282,2.819999999999984,-0.24836816,-0.3867299,-1.124151,5.281541,-2.7940977,-0.70952
283,2.8299999999999836,-0.30489585,-0.28233355,-1.2867824,4.488027,-4.1532726,-1.0612257
284,2.8399999999999834,-0.20281671,-0.2365382,-1.0412192,3.4955237,-4.689765,-1.3564262
285,2.849999999999983,-0.07591906,-0.21007323,-0.62802446,2.4248295,-4.3600507,-1.581072
286,2.859999999999983,0.00024391667,-0.12500729,-0.24818522,0.95737857,-2.8842003,-1.8374827
287,2.869999999999983,-0.01981823,-0.0837244,-0.11049425,0.57818395,-2.4168882,-1.9274325
288,2.8799999999999826,-0.01981823,-0.0837244,-0.11049425,-0.07223482,-1.6363553,-2.0986276
289,2.8899999999999824,-0.0629305,-0.11848252,-0.070065066,-0.07223482,-1.6363553,-2.0986276
290,2.899999999999982,-0.0629305,-0.11848252,-0.070065066,-0.33948836,-1.2536482,-2.158187
291,2.909999999999982,-0.64028126,-0.26202747,0.03750219,-0.4868596,-1.0349585,-2.1734586
292,2.9199999999999817,-0.64028126,-0.26202747,0.03750219,-0.4868596,-1.0349585,-2.1734586
293,2.9299999999999815,-5.5170293,-0.34758124,1.0866487,-0.37827832,-1.248914,-0.5766568
294,2.9399999999999813,-1.5090514,-0.21976891,-0.01603752,1.8865047,-5.9308906,6.808093
295,2.949999999999981,-1.1746417,-0.014939896,-0.14580119,1.8865047,-5.9308906,6.808093
296,2.959999999999981,-1.0156081,0.27117437,-0.13214186,1.3445144,-6.7755647,5.084537
297,2.9699999999999807,-0.85041547,0.46142936,0.20489,1.420109,-6.283971,3.057075
298,2.9799999999999804,-0.8232798,0.42551264,0.19391376,2.0308216,-4.7300825,2.166281
299,2.9899999999999802,-0.6998579,0.26458862,0.08451713,2.3301454,-3.327383,1.9373591
300,2.99999999999998,-0.56137425,0.1381178,0.053844605,2.3301454,-3.327383,1.9373591
301,3.00999999999998,-0.29574898,0.03457519,0.07097975,2.035403,-2.319608,2.004707
302,3.0199999999999796,-0.19214535,0.010305479,0.056222793,1.9034561,-2.3547328,1.988061
303,3.0299999999999794,0.023964813,-0.051039565,-0.027623562,1.3439035,-2.2316434,1.7663169
304,3.039999999999979,0.034270294,-0.08030956,-0.065674566,0.9221011,-1.7487545,1.628414
305,3.049999999999979,0.032318957,-0.123299874,-0.09000525,0.44868052,-0.96577793,1.545031
306,3.0599999999999787,-0.0027440626,-0.16647314,-0.114153,-0.20555615,0.2996294,1.5784758
307,3.0699999999999785,-0.053966567,-0.27172315,-0.14702077,-0.96867955,1.7621936,1.7414241
308,3.0799999999999783,-0.16153382,-1.5025266,0.13165402,-1.6540704,3.1398473,1.9259053
309,3.089999999999978,-0.16153382,-1.5025266,0.13165402,-1.8125899,9.446267,2.3419046
310,3.099999999999978,1.0181081,-5.056027,-0.21050009,-0.75625116,30.303802,-0.30024028
311,3.1099999999999777,4.197562,-9.319752,-0.024391668,-0.84971356,31.509193,-1.8264871
312,3.1199999999999775,4.2683587,-8.865029,-1.4980142,-2.3069327,20.919691,-6.634149
313,3.1299999999999772,2.5185616,-5.4142795,-0.95420206,-3.123354,4.850881,-6.2233424
314,3.139999999999977,1.0409144,-3.1171331,0.2648935,-3.123354,4.850881,-6.2233424
315,3.149999999999977,1.0409144,-3.1171331,0.2648935,-3.123354,4.850881,-6.2233424
316,3.1599999999999766,0.895662,-1.6904035,0.44911155,-4.43702,-4.841107,-2.0592268
317,3.1699999999999764,0.3436786,-0.19403571,0.3579477,-1.4702,-0.5841399,-0.31108314
318,3.179999999999976,0.3202016,-0.15732625,0.3012371,-1.0157162,0.18936823,-0.06780604
319,3.189999999999976,0.23666015,-0.02872119,0.14189851,-1.0157162,0.18936823,-0.06780604
320,3.1999999999999758,0.20415826,0.054393414,0.12738548,-0.7501425,-0.017256944,0.23441954
321,3.2099999999999755,0.16220458,0.13293459,0.08116327,-0.795652,-0.47616947,0.4512767
322,3.2199999999999753,0.11945819,0.19336495,0.029696856,-1.039998,-0.62125,0.73532903
323,3.229999999999975,0.05232013,0.21714681,0.10189619,-1.2104294,-0.5878051,0.9408852
324,3.239999999999975,0.05232013,0.21714681,0.10189619,-1.2269229,-0.6389651,1.1012373
325,3.2499999999999747,0.044758707,0.1981823,0.14006914,-1.156826,-0.78969604,1.229519
326,3.2599999999999745,0.06969919,0.18824269,0.1838522,-1.0296134,-0.98883814,1.3254249
327,3.2699999999999743,0.086712375,0.21726878,0.22117145,-0.63209283,-1.7427986,1.5793921
328,3.279999999999974,0.086712375,0.21726878,0.22117145,-0.63209283,-1.7427986,1.5793921
329,3.289999999999974,0.09939604,0.286846,0.17757133,-0.5542075,-2.2102633,2.060143
330,3.2999999999999736,0.09939604,0.286846,0.17757133,-0.5542075,-2.2102633,2.060143
331,3.3099999999999734,0.10378654,0.23873344,0.20647547,-0.68569624,-2.7188084,2.7855456
332,3.319999999999973,0.117933705,0.20287769,0.22897679,-0.63300914,-3.0717359,3.2607987
333,3.329999999999973,0.13958131,0.15671647,0.23806266,-0.63300914,-3.0717359,3.2607987
334,3.3399999999999728,0.13958131,0.15671647,0.23806266,-0.50533825,-3.3670893,3.5784485
335,3.3499999999999726,0.19190145,0.17690057,0.2051949,-0.033292156,-3.8151588,3.890448
336,3.3599999999999723,0.18805976,0.16647314,0.15604569,0.36270124,-3.728416,3.9219077
337,3.369999999999972,0.16933915,0.15507002,0.13653237,0.36270124,-3.728416,3.9219077
338,3.379999999999972,0.066345334,0.0071345624,0.09244442,0.99173975,-3.1435125,3.8806741
339,3.3899999999999717,0.055552024,-0.009634708,0.05793021,1.1582005,-2.6067147,3.8464658
340,3.3999999999999715,0.045978293,-0.009695687,0.043722063,1.3162619,-2.0554087,3.7461312
341,3.4099999999999713,0.04469773,0.014695979,0.054637335,1.5903877,-1.1838568,3.4738379
342,3.419999999999971,0.050612707,0.023476979,0.04384402,1.7276796,-0.73639804,3.3040173
343,3.429999999999971,0.062015813,0.040002335,0.015488708,1.8982637,-0.06688975,3.0112603
344,3.4399999999999706,0.057625312,0.05408852,-0.14305714,1.8657352,0.6977608,2.7569876
345,3.4499999999999704,-0.023537958,0.06305246,-0.9651173,1.6236799,1.5344934,2.606562
346,3.45999999999997,-0.023537958,0.06305246,-0.9651173,0.7115053,3.4826956,2.4937046
347,3.46999999999997,-0.18751094,-0.33008024,-0.90541863,-0.08124508,4.9716797,2.475226
348,3.47999999999997,0.37483895,0.012256813,0.4867967,-4.0453024,10.589655,1.8299996
349,3.4899999999999696,0.37483895,0.012256813,0.4867967,-4.0453024,10.589655,1.8299996
350,3.4999999999999694,0.46466127,-0.10018878,0.49490693,-3.706883,9.518197,1.3045027
351,3.509999999999969,0.46466127,-0.10018878,0.49490693,-4.9145637,8.744078,-0.21578814
352,3.519999999999969,0.16250949,-1.0435975,-3.9510233,-4.9145637,8.744078,-0.21578814
353,3.5299999999999687,-0.24044085,-6.036937,0.57497257,3.2192597,5.73633,-1.9088012
354,3.5399999999999685,-0.24044085,-6.036937,0.57497257,3.2192597,5.73633,-1.9088012
355,3.5499999999999683,0.17702252,-3.2796426,-2.1992745,8.4725485,-6.45822,0.5209153
356,3.559999999999968,0.67388076,-3.5285594,-1.021706,7.6698713,-9.549962,0.6618725
357,3.569999999999968,0.67388076,-3.5285594,-1.021706,7.6698713,-9.549962,0.6618725
358,3.5799999999999677,1.4509383,-4.9108963,-0.1884866,1.1432343,-8.523556,1.1756102
359,3.5899999999999674,1.2744646,-5.535018,-0.5158838,0.3594942,-6.195548,1.4546229
360,3.5999999999999672,0.45136783,-4.509166,0.13769096,0.8969029,1.464244,1.9477439
361,3.609999999999967,0.13220283,-3.468434,0.19482844,1.4877623,4.5376596,2.6557367
362,3.619999999999967,-0.034148335,-1.9189534,-0.17921777,1.4877623,4.5376596,2.6557367
363,3.6299999999999666,-0.042014647,-1.3678846,-0.35319135,1.4877623,4.5376596,2.6557367
364,3.6399999999999664,-0.009939604,-0.614548,-0.45228252,1.4877623,4.5376596,2.6557367
365,3.649999999999966,-0.015488708,-0.28330922,-0.48612595,2.2699752,0.12996158,3.2806518
366,3.659999999999966,-0.0037807084,-0.12189735,-0.48021096,1.9802724,-3.7956111,2.8643472
367,3.6699999999999657,0.052076213,0.040978,-0.5605815,1.9802724,-3.7956111,2.8643472
368,3.6799999999999655,0.052076213,0.040978,-0.5605815,1.6945401,-4.598288,2.7215574
369,3.6899999999999653,0.09695688,0.10982348,-0.8991988,0.88040954,-5.6095757,2.511267
370,3.699999999999965,0.084883004,0.08768804,-0.6524771,0.88040954,-5.6095757,2.511267
371,3.709999999999965,0.04835648,0.061162103,-0.047258858,-0.36041048,-6.139196,2.1361957
372,3.7199999999999647,0.04835648,0.061162103,-0.047258858,-0.29840767,-6.0484824,2.1068742
373,3.7299999999999645,0.027440626,0.059881546,0.050002918,-0.29840767,-6.0484824,2.1068742
374,3.7399999999999642,0.025916148,0.058418043,0.060247418,0.3115413,-5.1089716,1.7337883
375,3.749999999999964,0.02426971,0.094456725,0.055369087,0.5012149,-4.789489,1.5537357
376,3.759999999999964,0.047075916,0.23635526,0.03195308,0.59880066,-4.4359508,0.948521
377,3.7699999999999636,0.06786981,0.172693,0.037807085,0.5714644,-4.136321,0.61682117
378,3.7799999999999634,0.09622513,0.16586334,-0.01835473,0.3885103,-3.499036,-0.12461651
379,3.789999999999963,0.08720021,0.15013072,-0.03433127,0.1459968,-3.0694451,-0.6930266
380,3.799999999999963,0.087992944,0.13854466,-0.007866313,0.02565634,-2.7740917,-1.01312
381,3.8099999999999627,0.06518673,0.15196009,-0.02628202,-0.21319197,-2.20278,-1.568702
382,3.8199999999999625,0.053234816,0.22172025,0.008293167,-0.42913285,-1.7298176,-1.9170479
383,3.8299999999999623,0.037807085,0.2778211,0.055247124,-0.7655669,-0.52458054,-2.5088236
384,3.839999999999962,-0.022257395,0.3340439,0.08268775,-0.7655669,-0.52458054,-2.5088236
385,3.849999999999962,-0.083480485,0.43594006,0.20068243,-0.86361074,0.60231316,-2.718503
386,3.8599999999999617,-0.083480485,0.43594006,0.20068243,-0.86361074,0.60231316,-2.718503
387,3.8699999999999615,-0.304469,0.5424707,0.25269768,-0.9112582,3.3673947,-3.006526
388,3.8799999999999613,-0.37191194,0.51417637,0.23580644,-1.1623238,3.602425,-3.1302261
389,3.889999999999961,-0.37191194,0.51417637,0.23580644,-1.1623238,3.602425,-3.1302261
390,3.899999999999961,-0.26001516,0.19476746,0.10348164,-1.6713274,2.5879307,-3.573409
391,3.9099999999999606,-0.2063535,0.06597946,0.12750745,-1.767844,2.208278,-3.9333613
392,3.9199999999999604,-0.16049717,-0.11403105,0.13653237,-1.6636915,2.0667098,-4.3811255
393,3.92999999999996,-0.16049717,-0.11403105,0.13653237,-1.5425875,2.1024454,-4.6141706
394,3.93999999999996,-0.16738781,-0.16379005,0.120007,-1.4191927,2.1395555,-4.8116326
395,3.9499999999999598,-1.2299498,-0.5683868,0.16061912,-1.0761919,2.344959,-4.4556513
396,3.9599999999999596,-5.0064507,-3.2015283,1.0425608,-0.3118467,3.8140898,-1.5745052
397,3.9699999999999593,-7.3149385,-8.343474,0.07488242,0.105374254,5.6107974,5.3021574
398,3.979999999999959,-6.055841,-8.50263,0.01683025,-0.50732356,5.087133,10.799487
399,3.989999999999959,-1.3686775,-9.657698,-0.92779803,-0.50732356,5.087133,10.799487
400,3.9999999999999587,-0.37611952,-7.153344,-1.3599575,-1.02549,-12.996616,3.138931
401,4.009999999999959,-0.2906877,-4.7784495,-0.4765522,0.8761335,-21.315226,3.0579915
402,4.019999999999959,2.3391607,-1.6909524,-12.408772,1.9558378,-25.072506,1.6354389
403,4.0299999999999585,0.9852404,-0.93767667,-2.9192557,-1.7319556,-7.071834,0.56184334
404,4.039999999999958,0.41691455,-1.0499393,-0.12592198,-0.4622723,3.7539196,0.3368922
405,4.049999999999958,0.47710103,-0.69296724,0.2816018,0.7487681,6.7395234,-0.57910025
406,4.059999999999958,0.47710103,-0.69296724,0.2816018,0.7487681,6.7395234,-0.57910025
407,4.069999999999958,0.31678677,-0.131715,0.088419795,1.0093021,7.3558865,-1.7263051
408,4.079999999999957,0.20232888,0.0031099375,0.09726177,1.0093021,7.3558865,-1.7263051
409,4.089999999999957,0.17805916,0.06988213,0.14592315,1.0045679,7.1639223,-1.9005545
410,4.099999999999957,0.17805916,0.06988213,0.14592315,1.0045679,7.1639223,-1.9005545
411,4.109999999999957,0.17805916,0.06988213,0.14592315,1.0045679,7.1639223,-1.9005545
412,4.119999999999957,0.17805916,0.06988213,0.14592315,1.0045679,7.1639223,-1.9005545
413,4.129999999999956,0.030611541,0.17055872,0.05646671,0.8578075,5.540242,-1.5021176
414,4.139999999999956,0.052198168,0.20421924,0.023111105,-0.26267207,3.123354,-0.9266826
415,4.149999999999956,0.06671121,0.20531686,0.031038398,-0.5839872,2.4611762,-0.82924956
416,4.159999999999956,0.08085837,0.20818289,0.13299556,-1.5662584,0.33399057,-0.59559363
417,4.1699999999999555,0.09640807,0.1972676,0.19373082,-2.0551033,-0.8773552,-0.44929138
418,4.179999999999955,0.11537258,0.18196183,0.2550149,-2.4049764,-2.0302107,-0.2864958
419,4.189999999999955,0.112201676,0.17086363,0.2862972,-2.5240953,-2.7241535,-0.15958855
420,4.199999999999955,0.11842154,0.16019227,0.30696914,-2.5465446,-3.2464433,-0.0364992
421,4.209999999999955,0.11842154,0.16019227,0.30696914,-2.5465446,-3.2464433,-0.0364992
422,4.2199999999999545,0.17324181,0.14506944,0.34233707,-2.5465446,-3.2464433,-0.0364992
423,4.229999999999954,0.17543708,0.13220283,0.27525997,-1.9219347,-4.253913,0.25793785
424,4.239999999999954,0.17202222,0.1276294,0.2294646,-1.7319556,-4.306447,0.3032946
425,4.249999999999954,0.15171617,0.122934,0.16549747,-1.3529139,-4.280638,0.38759398
426,4.259999999999954,0.14945993,0.12769037,0.14006914,-1.1479685,-4.189008,0.4202753
427,4.269999999999953,0.14945993,0.12769037,0.14006914,-1.0033462,-4.042859,0.43401974
428,4.279999999999953,0.21415883,0.16183871,0.18123008,-1.0033462,-4.042859,0.43401974
429,4.289999999999953,0.21415883,0.16183871,0.18123008,-0.84467393,-3.816075,0.42073345
430,4.299999999999953,0.26190552,0.16086306,0.23629428,-0.32895094,-2.8805351,0.257327
431,4.3099999999999525,0.3445933,0.12299499,0.27556485,-0.1151481,-2.3741279,0.10980303
432,4.319999999999952,0.39941353,0.11079915,0.3108718,0.12858713,-1.5294539,-0.15882497
433,4.329999999999952,0.4616733,0.09415183,0.33270234,0.27550024,-0.54641896,-0.38698313
434,4.339999999999952,0.42728102,0.008476105,0.26318607,0.43142357,0.43310347,-0.6776023
435,4.349999999999952,0.28471172,-0.17409553,0.59588844,0.6940956,2.1493294,-0.9117164
436,4.3599999999999515,0.28026026,-0.31599405,0.43825728,0.72418076,5.330563,-0.8060367
437,4.369999999999951,-0.7789479,-4.5049577,-11.160286,-5.925393,5.6179748,-0.06856962
438,4.379999999999951,-0.24757542,-6.1555424,-0.8085838,-11.927144,0.9392053,0.5172501
439,4.389999999999951,-0.24757542,-6.1555424,-0.8085838,-11.927144,0.9392053,0.5172501
440,4.399999999999951,-0.46740535,-10.252732,0.81218153,7.771122,5.070029,3.9654317
441,4.40999999999995,-0.052198168,-10.649463,0.1676927,7.3671875,9.50262,4.3887615
442,4.41999999999995,0.21348806,-6.764602,-1.6288145,4.019188,4.1573963,2.2230914
443,4.42999999999995,-0.004268542,-3.9800491,-0.3918521,2.0465512,0.4370741,0.0580322
444,4.43999999999995,-0.21592724,-2.20397,0.039819397,1.3225232,-1.3797919,-2.1374176
445,4.4499999999999496,-0.27580878,-1.4139849,0.00512225,1.3225232,-1.3797919,-2.1374176
446,4.459999999999949,-0.34319076,-0.9169437,-0.037685126,1.3836098,-1.9109392,-2.4663684
447,4.469999999999949,-0.5198474,-0.50155365,-0.11817763,1.5322027,-2.8472428,-2.3490822
448,4.479999999999949,-0.7256521,-0.23513566,-0.06744295,1.9214766,-3.6302195,-1.9225457
449,4.489999999999949,-1.1059792,-0.09262736,-0.63735425,3.5443928,-3.4611626,-1.0749701
450,4.4999999999999485,-1.1059792,-0.09262736,-0.63735425,3.5443928,-3.4611626,-1.0749701
451,4.509999999999948,-1.2812942,0.028355313,-0.5772288,2.9961412,-5.7123537,0.09911288
452,4.519999999999948,-1.0153642,0.576741,-0.29135844,2.9993484,-5.8417044,-0.6918049
453,4.529999999999948,-0.895784,0.87834394,-0.24025792,2.8131871,-6.2066965,-2.2879958
454,4.539999999999948,-0.73803085,0.7365064,-0.38703477,2.381458,-6.374226,-3.8510473
455,4.549999999999947,-0.68272275,0.6255853,-0.5902783,1.9596558,-6.233727,-4.3791404
456,4.559999999999947,-0.7693132,0.57552135,-0.82590187,0.72402805,-5.259397,-4.6772423
457,4.569999999999947,-0.769862,0.5470441,-0.75047064,-0.09911288,-3.9837577,-4.468632
458,4.579999999999947,-0.769862,0.5470441,-0.75047064,-0.09911288,-3.9837577,-4.468632
459,4.589999999999947,-0.769862,0.5470441,-0.75047064,-0.09911288,-3.9837577,-4.468632
460,4.599999999999946,-0.61485296,0.41142645,-0.32526287,-0.9419542,-2.8350255,-4.0785947
461,4.609999999999946,-0.72985965,0.37276566,0.2924561,-1.6186402,-3.095407,-2.4045184
462,4.619999999999946,-0.6711977,0.38246134,0.46350268,-1.1279627,-3.4695618,-1.6157386
463,4.629999999999946,-0.53698254,0.47130796,0.39746222,-0.80970186,-3.5069773,-1.1157454
464,4.6399999999999455,-0.53698254,0.47130796,0.39746222,-0.31795537,-3.0815098,-0.31306845
465,4.649999999999945,-0.4689298,0.46807608,0.31922594,-0.1469131,-2.3559546,0.17959438
466,4.659999999999945,-0.29080966,0.35624027,0.21617115,0.22770002,0.7481572,1.0619892
467,4.669999999999945,-0.29080966,0.35624027,0.21617115,0.22770002,0.7481572,1.0619892
468,4.679999999999945,0.23044027,0.10982348,-0.7000409,-0.6772968,2.6380215,1.0644327
469,4.689999999999944,0.2061096,0.04177073,-0.46356362,-0.6772968,2.6380215,1.0644327
470,4.699999999999944,0.2061096,0.04177073,-0.46356362,-1.2912164,2.8047879,0.86284715
471,4.709999999999944,0.0031709166,0.015122834,0.1185435,-1.936901,3.2594242,0.7125743
472,4.719999999999944,-0.015244792,-0.01243975,0.0714066,-1.9257526,3.36938,0.766025
473,4.729999999999944,-0.030977417,-0.038904708,0.051588375,-2.0540345,3.738648,0.8529206
474,4.739999999999943,-0.037807085,-0.04542948,0.007256521,-2.2414174,4.1512876,0.91736686
475,4.749999999999943,-0.06854059,-0.0778704,-0.021403689,-2.6410758,4.9118147,1.0377073
476,4.759999999999943,-0.32117727,-0.20830485,-0.072992064,-3.0972395,5.757558,1.2490667
477,4.769999999999943,-1.492953,-1.0795141,0.4001453,-3.8121045,7.675216,2.6239717
478,4.7799999999999425,-1.7812015,-2.9183412,0.78144807,-3.9003747,9.574091,4.325995
479,4.789999999999942,-1.7812015,-2.9183412,0.78144807,-3.0123293,12.130104,3.9368737
480,4.799999999999942,-0.45685592,-11.933257,2.0931098,0.3585779,14.212849,2.289523
481,4.809999999999942,0.26111278,-12.738426,1.0371337,4.362647,8.579602,1.5745052
482,4.819999999999942,1.583568,-7.3318915,-0.6319881,5.7398424,-0.4970916,-1.0231993
483,4.8299999999999415,1.6678412,-5.1401167,-1.4996607,4.6970954,-2.5445592,-1.8409951
484,4.839999999999941,1.1116502,-1.7005872,-2.1771393,-0.17806722,-5.109124,-3.331659
485,4.849999999999941,0.2648935,-0.7336404,-0.27263784,-3.5390477,-2.53112,-2.990338
486,4.859999999999941,0.2648935,-0.7336404,-0.27263784,-3.9122865,-0.17654006,-2.1717787
487,4.869999999999941,0.20970736,-0.097871564,0.19751152,-3.7662897,0.5705481,-1.9414824
488,4.87999999999994,0.20970736,-0.097871564,0.19751152,-3.7662897,0.5705481,-1.9414824
489,4.88999999999994,0.1419595,-0.005549104,0.24251415,-3.492011,0.9424124,-1.779756
490,4.89999999999994,-0.0001829375,0.10457927,0.20854875,-3.035542,1.4573717,-1.3238977
491,4.90999999999994,0.0036587503,0.20495099,0.199036,-2.6032023,1.9320141,-0.88514376
492,4.9199999999999395,-0.0014025208,0.27166218,0.17818113,-2.3600779,2.0659463,-0.54534996
493,4.929999999999939,-0.0075004376,0.24672171,0.16964404,-2.3600779,2.0659463,-0.54534996
494,4.939999999999939,-0.00060979166,0.21854934,0.17787623,-2.0641136,2.8107438,0.020005837
495,4.949999999999939,-0.0041465834,0.22196417,0.19342592,-1.9956968,3.0616567,0.13927728
496,4.959999999999939,-0.018720604,0.23074517,0.23165986,-1.9346102,3.4726162,0.464563
497,4.9699999999999385,-0.0453685,0.21678093,0.3192869,-1.859932,3.4588718,0.70738196
498,4.979999999999938,-0.03207504,0.21958598,0.40612125,-1.6131424,2.934902,1.08902
499,4.989999999999938,-0.025489293,0.24446549,0.41758534,-1.3875804,2.2142339,1.3759739
500,4.999999999999938,-0.019940188,0.25269768,0.38971785,-1.2351695,1.4210253,1.6800321
501,5.009999999999938,0.0031709166,0.27611366,0.35313037,-1.0322095,0.05589417,2.0734293
502,5.019999999999937,0.037868064,0.31526232,0.3222749,-0.9407325,-0.8536842,2.2918136
503,5.029999999999937,0.07451654,0.34203213,0.25068536,-0.77763146,-1.8374827,2.4889705
504,5.039999999999937,0.07451654,0.34203213,0.25068536,-0.5991061,-2.5135577,2.5883887
505,5.049999999999937,0.134642,0.38758358,0.20446315,-0.44073927,-2.9153545,2.626415
506,5.0599999999999365,0.16464376,0.3755097,0.18488884,-0.44073927,-2.9153545,2.626415
507,5.069999999999936,0.16464376,0.3755097,0.18488884,-0.44073927,-2.9153545,2.626415
508,5.079999999999936,0.16464376,0.3755097,0.18488884,-0.44073927,-2.9153545,2.626415
509,5.089999999999936,0.14293517,0.30251765,0.1027499,1.0823005,-3.3542612,1.4891367
510,5.099999999999936,0.09909115,0.2655643,0.073540874,1.0823005,-3.3542612,1.4891367
511,5.1099999999999355,0.087992944,0.26599112,0.06317442,1.3138185,-2.7311785,0.8713993
512,5.119999999999935,0.06591848,0.2555027,0.03237994,1.363604,-2.0016527,0.42959097
513,5.129999999999935,0.04756375,0.25044146,0.018110814,1.3038919,-1.3970488,0.20280726
514,5.139999999999935,0.053844605,0.22604977,-0.005854,1.2330315,-1.0216721,0.09560041
515,5.149999999999935,0.059576645,0.18104716,-0.0661624,1.0454959,-0.35796702,-0.107665
516,5.159999999999934,0.08933448,0.11281146,-0.2804432,0.6389651,0.5862779,-0.3306308
517,5.169999999999934,-0.43404973,-1.4448404,-4.060237,-0.63407815,2.378251,-0.5479461
518,5.179999999999934,-0.43404973,-1.4448404,-4.060237,-6.931793,6.41042,-0.5516113
519,5.189999999999934,-0.41642675,-1.1437863,-1.7690057,-9.204976,6.0752077,-0.41050145
520,5.199999999999934,-0.48057684,-3.4327612,-5.916321,-11.382863,3.2543845,-0.27550024
521,5.209999999999933,0.059088815,-6.768322,-6.940527,7.0490794,4.988478,0.010995574
522,5.219999999999933,0.37276566,-2.7361963,2.3538568,8.207433,3.6225836,-0.017715093
523,5.229999999999933,0.40996295,-2.6246045,2.1242702,8.207433,3.6225836,-0.017715093
524,5.239999999999933,1.99908,-8.879725,0.37557068,3.8369973,-3.1143436,-2.110692
525,5.2499999999999325,1.7985805,-6.8639374,1.0626839,3.8369973,-3.1143436,-2.110692
526,5.259999999999932,1.6252168,-4.1603646,1.0062782,-1.1661417,-5.5171824,-0.37812558
527,5.269999999999932,0.94414043,-1.8563887,0.42337835,-1.1661417,-5.5171824,-0.37812558
528,5.279999999999932,0.94414043,-1.8563887,0.42337835,-0.37491855,-4.379904,-1.4323263
529,5.289999999999932,0.2215983,-0.38014415,0.8931009,2.5992317,-1.9249891,-2.3228152
530,5.299999999999931,0.011647021,-0.33934906,0.506493,6.524194,0.78801614,-2.755766
531,5.309999999999931,0.011647021,-0.33934906,0.506493,6.524194,0.78801614,-2.755766
532,5.319999999999931,-0.17470531,-0.31770146,-1.0223768,8.536536,-0.9799806,-2.6844473
533,5.329999999999931,-0.520945,-0.15830192,-2.2904384,7.892379,-6.9786773,-2.8215866
534,5.339999999999931,-0.5471661,-0.37124115,-0.8856005,5.892559,-12.134838,-2.868165
535,5.34999999999993,-0.46112445,-0.36739948,-0.32001868,5.30903,-12.283736,-2.801428
536,5.35999999999993,-0.34617874,-0.2865411,0.038355898,4.1480803,-9.74941,-2.6148088
537,5.36999999999993,-0.3392881,-0.20641449,0.08226089,3.6473236,-8.126646,-2.4938574
538,5.37999999999993,-0.27672347,-0.15049659,0.08122425,3.0671544,-6.239225,-2.313194
539,5.3899999999999295,-0.23025733,-0.12836114,0.050734665,2.510198,-4.46909,-2.2052236
540,5.399999999999929,-0.20891462,-0.11720196,0.005000292,2.1716259,-3.4703255,-2.161394
541,5.409999999999929,-0.44337955,-0.013720313,-0.7003457,-0.42378777,-2.8290696,-1.5906931
542,5.419999999999929,-0.43191543,-0.0017074167,-0.34123942,-0.42378777,-2.8290696,-1.5906931
543,5.429999999999929,-0.46179524,0.06366225,0.18391317,-0.96929044,-2.4721715,-1.3778065
544,5.4399999999999284,-0.4921019,0.12604393,0.25452703,-1.2330315,-1.7959439,-1.1363621
545,5.449999999999928,-2.022923,0.7190664,1.1645802,-1.2263119,-1.6650659,-1.0085385
546,5.459999999999928,-1.8593767,0.7627884,0.9639587,1.1414018,-6.807024,2.1777346
547,5.469999999999928,-1.8593767,0.7627884,0.9639587,1.1414018,-6.807024,2.1777346
548,5.479999999999928,-0.8607819,0.3556915,0.086163566,1.7762434,-7.1014614,3.3342552
549,5.489999999999927,-0.8607819,0.3556915,0.086163566,1.7762434,-7.1014614,3.3342552
550,5.499999999999927,-0.009695687,0.41343874,-0.40209663,0.1863139,-3.2976034,2.3212879
551,5.509999999999927,0.07988271,0.3567891,0.2909926,-0.22892176,-2.4801128,1.4784466
552,5.519999999999927,0.18824269,0.17580293,0.62717074,-0.22892176,-2.4801128,1.4784466
553,5.5299999999999265,0.080919355,-0.030245667,0.56527686,0.5476407,-2.3651175,-0.7496844
554,5.539999999999926,0.080919355,-0.030245667,0.56527686,0.5476407,-2.3651175,-0.7496844
555,5.549999999999926,-0.03469715,-0.08018761,0.4063652,0.5476407,-2.3651175,-0.7496844
556,5.559999999999926,-0.13177599,-0.15013072,0.35459387,0.5175556,0.8379544,-1.2524265
557,5.569999999999926,-0.38819337,-0.36605796,0.2420873,0.22266038,2.9374983,-0.7283041
558,5.5799999999999255,-0.7796187,-0.8657212,-0.24495333,-0.7301367,7.308239,0.6252206
559,5.589999999999925,-1.0681111,-1.7725424,-1.1435424,-2.9356656,11.318264,1.9540052
560,5.599999999999925,-1.7338207,-8.04803,-1.4473405,-11.076514,23.3181,9.154274
561,5.609999999999925,0.82870686,-9.529763,0.9721909,-5.0610185,13.712398,10.061256
562,5.619999999999925,1.7266251,-8.244079,0.78657025,-0.23365596,9.1726,7.49608
563,5.629999999999924,1.5159422,-6.345248,0.59247357,-0.23365596,9.1726,7.49608
564,5.639999999999924,1.2797698,-4.477578,0.6349151,0.5172501,11.343767,-0.3304781
565,5.649999999999924,1.0239623,-2.9225485,0.63174415,0.6221663,10.429761,-2.1671972
566,5.659999999999924,0.56503296,-2.0568883,0.48295498,0.7666359,8.345489,-3.189022
567,5.6699999999999235,0.30367625,-1.3687384,0.23068418,0.5513059,6.7816734,-3.292869
568,5.679999999999923,0.2004995,-1.0736603,0.1855596,0.32421672,5.631872,-3.174514
569,5.689999999999923,0.2004995,-1.0736603,0.1855596,0.32421672,5.631872,-3.174514
570,5.699999999999923,0.11384811,-0.8959059,0.16689998,0.06780604,4.534453,-2.9281826
571,5.709999999999923,-0.052442085,-0.10518907,0.09262736,-1.0961977,1.016327,-1.6230689
572,5.7199999999999225,-0.048783336,-0.004268542,0.10994543,-1.4894422,0.3810272,-1.1983649
573,5.729999999999922,0.0035367915,0.058905877,0.100432694,-1.887879,-0.057726767,-0.7831292
574,5.739999999999922,0.048051585,0.08122425,0.124031626,-2.112372,-0.06001751,-0.53130007
575,5.749999999999922,0.05945469,0.08720021,0.14793546,-2.0766363,0.16401732,-0.22006421
576,5.759999999999922,0.099457026,0.1800105,0.2894681,-2.0766363,0.16401732,-0.22006421
577,5.769999999999921,0.09268834,0.2628202,0.28111395,-1.9136881,-0.06765333,0.05467244
578,5.779999999999921,0.090249166,0.16488767,0.4416111,-1.6082555,-1.7922786,1.1879802
579,5.789999999999921,0.090249166,0.16488767,0.4416111,-1.6082555,-1.7922786,1.1879802
580,5.799999999999921,0.122934,0.15921661,0.43959883,-1.518611,-2.3258693,1.4404203
581,5.809999999999921,0.24440451,0.16007032,0.33117786,-1.2681563,-4.3386703,2.7004826
582,5.81999999999992,0.24440451,0.16007032,0.33117786,-1.2681563,-4.3386703,2.7004826
583,5.82999999999992,0.35081315,0.14903308,0.3196528,-1.2005029,-4.6781588,3.1134274
584,5.83999999999992,0.35081315,0.14903308,0.3196528,-1.061073,-4.990158,3.5329392
585,5.84999999999992,0.3594722,0.14653294,0.2886144,-0.7191411,-5.2564955,3.6705365
586,5.8599999999999195,0.32526287,0.08116327,0.18769388,-0.43279803,-5.3317847,3.604105
587,5.869999999999919,0.3141037,0.07415067,0.13799585,-0.43279803,-5.3317847,3.604105
588,5.879999999999919,0.29648072,0.073845774,0.096895896,0.06795876,-5.2216763,3.3046284
589,5.889999999999919,0.2862972,0.07817529,0.08354146,0.20311269,-5.0196323,3.1810808
590,5.899999999999919,0.26208845,0.072138354,0.0717115,0.41874814,-4.3070583,2.859002
591,5.909999999999918,0.25781992,0.06866254,0.060491335,0.4989242,-3.952909,2.7088819
592,5.919999999999918,0.20159712,0.07500438,0.029148044,0.58383447,-3.3241758,2.4608707
593,5.929999999999918,0.20159712,0.07500438,0.029148044,0.63514715,-2.8418977,2.2708917
594,5.939999999999918,0.21940304,0.09256637,-0.010366458,0.7058548,-1.7718146,1.7713565
595,5.949999999999918,0.24849011,0.10092052,-0.04768571,0.7058548,-1.7718146,1.7713565
596,5.959999999999917,0.24849011,0.10092052,-0.04768571,0.6647741,-1.340391,1.5344934
597,5.969999999999917,-2.877485,-0.529726,-2.1891522,0.5555819,-0.79229224,1.2635747
598,5.979999999999917,-2.877485,-0.529726,-2.1891522,-0.68798697,2.2015584,2.8787024
599,5.989999999999917,-1.8956594,-0.6334516,-1.9396864,-2.9982793,7.083441,4.1497602
600,5.9999999999999165,0.7139441,-0.20397532,0.48655275,-4.5744643,10.294912,4.274682
601,6.009999999999916,0.5552153,-0.3588624,0.066772185,-3.9865067,10.243446,1.8526015
602,6.019999999999916,0.5552153,-0.3588624,0.066772185,-3.9865067,10.243446,1.8526015
603,6.029999999999916,0.5552153,-0.3588624,0.066772185,-3.9865067,10.243446,1.8526015
604,6.039999999999916,-1.1071987,-2.3165376,2.31483,4.5657597,-0.3801109,1.2211196
605,6.0499999999999154,-1.0374995,-1.8605353,2.8805947,7.019911,-3.6615262,2.6815457
606,6.059999999999915,0.002561125,-2.1120746,1.3600184,9.545381,-5.188995,3.084106
607,6.069999999999915,0.7943146,-3.9829762,0.48551616,10.0323925,-7.347487,1.6232216
608,6.079999999999915,0.5857659,-6.5898967,-1.9673709,2.4817927,-5.9702916,-0.42424592
609,6.089999999999915,1.2988563,-6.360188,1.5158811,-0.12843442,-6.6770625,-2.4318545
610,6.099999999999914,0.46911272,-5.867172,1.8241308,-1.4530957,-5.537799,-3.8284452
611,6.109999999999914,-0.25824678,-4.5333133,1.680525,-0.49693888,-2.1960607,-3.1047225
612,6.119999999999914,-0.512164,-2.5505147,0.8798074,1.0340421,0.12156218,-1.700038
613,6.129999999999914,-0.44673342,-1.920295,0.48868704,1.6610953,0.75640386,-1.0589349
614,6.1399999999999135,-0.38612008,-1.3301386,0.21501255,2.1546745,1.1658363,-0.31978795
615,6.149999999999913,-0.39959648,-1.0319505,0.06890646,2.2731824,1.180497,-0.081855945
616,6.159999999999913,-0.36496034,-0.43539125,-0.4434405,4.69847,-7.900473,-0.29703322
617,6.169999999999913,-0.41606086,-0.38587618,-0.45240447,4.69847,-7.900473,-0.29703322
618,6.179999999999913,-1.0149373,-0.35697204,-0.35221568,4.330882,-9.123119,-0.15485434
619,6.1899999999999125,-1.2179369,-0.36185038,-0.190255,4.2432227,-8.907331,0.08582657
620,6.199999999999912,-1.2179369,-0.36185038,-0.190255,4.2432227,-8.907331,0.08582657
621,6.209999999999912,-1.589605,0.5198474,-0.3529474,3.389844,-8.708953,0.8051204
622,6.219999999999912,-1.5872878,0.97084934,-0.31507936,1.4737124,-10.806512,-1.2021828
623,6.229999999999912,-1.4406939,0.84139055,0.22257397,0.013591751,-11.221136,-2.1284072
624,6.239999999999911,-0.9714591,0.799132,0.2672717,-0.19990565,-9.660376,-2.234087
625,6.249999999999911,-0.56802094,0.62332904,0.13897152,-0.060170226,-7.1830115,-2.3510675
626,6.259999999999911,-0.374717,0.40032822,-0.7466899,-0.8801041,-5.861405,-2.3237314
627,6.269999999999911,-0.17891288,0.368802,-0.7633372,-1.8962784,-4.9646544,-2.3448062
628,6.2799999999999105,-0.1589117,0.40788963,-0.48874804,-2.4862216,-3.610061,-2.52043
629,6.28999999999991,-0.22245201,0.41496322,-0.2775162,-2.6595545,-2.1175644,-2.7087293
630,6.29999999999991,-0.40349916,0.4444162,0.12183637,-2.4753788,-0.32834008,-2.8214338
631,6.30999999999991,-0.66162395,0.5077735,0.45764863,-2.0796907,-0.101098195,-2.7049112
632,6.31999999999991,-1.1168334,0.6191215,0.78260666,-1.2356277,-1.2018774,-2.110234
633,6.3299999999999095,-1.1168334,0.6191215,0.78260666,-1.2356277,-1.2018774,-2.110234
634,6.339999999999909,-1.0356092,0.480089,0.5887539,0.87872964,0.085673854,0.17577648
635,6.349999999999909,-0.5096639,0.20330454,0.20952442,0.19058995,-1.5360206,-0.6795876
636,6.359999999999909,0.35483778,-0.06890646,-1.1940941,-0.41599923,0.23457226,-0.05207626
637,6.369999999999909,0.35483778,-0.06890646,-1.1940941,-2.4648414,-0.8547532,-0.79458296
638,6.379999999999908,0.37721714,-0.14720371,-0.59741294,-3.1613803,-1.4992161,-1.0861185
639,6.389999999999908,-0.07329696,-0.2669668,0.31898203,-3.6992471,-1.3561208,-1.0326678
640,6.399999999999908,-0.13567865,-0.27422333,0.28343117,-3.6992471,-1.3561208,-1.0326678
641,6.409999999999908,-0.13567865,-0.27422333,0.28343117,-3.339142,-0.6794349,-0.6637051
642,6.419999999999908,-0.30251765,-0.5614962,-0.07335794,-3.196658,1.3744467,0.12873985
643,6.429999999999907,-0.39587677,-0.7165052,-0.35258156,-3.247207,2.6294694,0.42058071
644,6.439999999999907,-0.62960994,-1.2983074,-1.513442,-4.884631,5.3763776,1.1684325
645,6.449999999999907,-0.62960994,-1.2983074,-1.513442,-4.884631,5.3763776,1.1684325
646,6.459999999999907,-1.0871977,-3.8969347,-1.5469805,-5.0917144,10.971598,2.8385382
647,6.4699999999999065,-1.6988186,-4.961204,0.52179873,-1.3213016,14.1059475,6.2625904
648,6.479999999999906,-0.7870581,-6.477512,0.41459736,-0.26083946,17.78366,9.021411
649,6.489999999999906,0.42746398,-7.0922427,0.7505926,-1.581072,20.992384,8.749118
650,6.499999999999906,0.42746398,-7.0922427,0.7505926,-1.9234619,20.847303,6.338796
651,6.509999999999906,1.0574398,-5.7388716,0.90352833,-1.9234619,20.847303,6.338796
652,6.519999999999905,0.6400983,-3.7195463,0.69565034,0.09208794,13.679258,-0.6436992
653,6.529999999999905,0.47636923,-2.8139448,0.59222966,0.6815729,10.669678,-1.9573649
654,6.539999999999905,0.15915562,-1.1598847,0.4278908,1.2305881,6.5768805,-2.7041478
655,6.549999999999905,0.15915562,-1.1598847,0.4278908,1.3695599,3.7161987,-3.0352366
656,6.559999999999905,0.0039026667,-0.7017483,0.27501604,1.2707524,0.57879484,-2.984993
657,6.569999999999904,-0.078785084,-0.39764515,0.12665373,0.91782504,-1.3588698,-2.7113254
658,6.579999999999904,-0.09866429,-0.052807957,0.10665256,0.008857546,-3.4663548,-1.8348864
659,6.589999999999904,-0.04481969,0.054942228,0.16580236,-0.35613444,-3.59876,-1.486846
660,6.599999999999904,-0.010854292,0.086163566,0.11067719,-0.61819565,-3.4449747,-1.2774719
661,6.6099999999999035,-0.0043295207,0.0895784,0.093664,-0.61819565,-3.4449747,-1.2774719
662,6.619999999999903,-0.0043295207,0.0895784,0.093664,-1.072374,-2.8394544,-0.8753699
663,6.629999999999903,0.022135438,0.13183697,0.14945993,-1.1954633,-2.4236078,-0.66752297
664,6.639999999999903,0.027989438,0.18744996,0.16342416,-1.3234396,-2.0761783,-0.41279218
665,6.649999999999903,0.03664848,0.23714797,0.14586218,-1.508379,-1.8144225,-0.1385137
666,6.659999999999902,0.05652769,0.24946578,0.14836231,-1.7765489,-1.5728253,0.16340645
667,6.669999999999902,0.05640573,0.23348923,0.17293692,-1.7765489,-1.5728253,0.16340645
668,6.679999999999902,0.050856624,0.20062146,0.26391783,-2.5665503,-1.9653062,1.2780828
669,6.689999999999902,0.050856624,0.20062146,0.26391783,-2.669023,-2.225535,1.5402967
670,6.699999999999902,0.1437279,0.14580119,0.32007965,-2.6890287,-3.2217033,2.2869267
671,6.709999999999901,0.21287827,0.13116619,0.3302022,-2.5767822,-3.6893206,2.5402832
672,6.719999999999901,0.26245433,0.14903308,0.33831242,-2.3014348,-4.24643,2.694832
673,6.729999999999901,0.31507936,0.16342416,0.33178765,-2.0254765,-4.648532,2.7508788
674,6.739999999999901,0.31867713,0.16879034,0.30837163,-1.7944167,-4.9192977,2.7546968
675,6.7499999999999005,0.27129632,0.17446141,0.21232945,-1.2673926,-5.2468743,2.720183
676,6.7599999999999,0.26178357,0.18116911,0.187328,-1.073901,-5.22977,2.7004826
677,6.7699999999999,0.26178357,0.18116911,0.187328,-0.71868294,-5.000543,2.6296222
678,6.7799999999999,0.24178241,0.19031598,0.18068127,-0.2724459,-4.471839,2.5103507
679,6.7899999999999,0.22592781,0.26019812,0.12067777,-0.006872234,-4.0419426,2.4124596
680,6.7999999999998995,0.22043969,0.26586917,0.08012662,0.45478916,-3.004388,2.1186333
681,6.809999999999899,0.22043969,0.26586917,0.08012662,0.7910705,-1.5766432,1.4054482
682,6.819999999999899,0.21043912,0.26178357,0.051283482,0.7611381,-1.1235338,0.9140071
683,6.829999999999899,0.17818113,0.29019985,-0.0034758127,0.7611381,-1.1235338,0.9140071
684,6.839999999999899,0.19458452,0.24495333,-0.009573729,0.6284276,-1.0308352,0.64476824
685,6.849999999999898,0.19659685,0.18464492,0.022867188,-0.009010263,-1.5031867,0.08857546
686,6.859999999999898,0.2303793,0.11915329,0.049332146,-0.18096884,-1.6618589,-0.05375614
687,6.869999999999898,0.14513041,0.025855167,0.14665489,-0.23640485,-1.2854131,-0.26236662
688,6.879999999999898,-0.32623854,-0.5260063,-1.5505784,-0.32345316,1.7079792,-0.40622538
689,6.8899999999998975,0.1694611,-0.91163856,-2.359528,-4.818963,16.622713,-0.69043046
690,6.899999999999897,0.37916848,-1.0156081,-1.6105818,-5.4302864,22.360264,-1.7001907
691,6.909999999999897,-0.7644348,-7.83442,-10.685014,-4.919145,19.004477,-2.3976462
692,6.919999999999897,0.66686815,-2.8905954,1.8328509,2.044108,0.3501785,-0.054061573
693,6.929999999999897,0.2651374,-2.215495,1.7493703,5.0607133,-2.9744556,0.40790528
694,6.9399999999998965,1.4399011,-4.603134,1.1307367,7.5383825,-6.6552243,0.093767814
695,6.949999999999896,1.4399011,-4.603134,1.1307367,7.2268414,-6.8720813,0.8352055
696,6.959999999999896,1.9512113,-7.559587,0.7296767,7.2268414,-6.8720813,0.8352055
697,6.969999999999896,1.9512113,-7.559587,0.7296767,5.974109,-5.8389554,1.5204436
698,6.979999999999896,1.9512113,-7.559587,0.7296767,5.974109,-5.8389554,1.5204436
699,6.989999999999895,1.9512113,-7.559587,0.7296767,5.974109,-5.8389554,1.5204436
700,6.999999999999895,1.7888238,-6.4225087,0.7452874,1.8275561,-1.6113098,-0.035124753
701,7.009999999999895,-0.44405028,-0.48838213,-0.3987428,4.8473682,-1.6713274,-0.6104071
702,7.019999999999895,-0.44405028,-0.48838213,-0.3987428,6.9469123,-5.6439366,-1.047023
703,7.0299999999998946,-0.82852393,-0.14397182,-1.8049223,6.67355,-11.562152,-1.2224941
704,7.039999999999894,-0.82852393,-0.14397182,-1.8049223,6.67355,-11.562152,-1.2224941
705,7.049999999999894,-0.670344,-0.3026396,0.051344458,3.8611264,-13.456597,-0.8593347
706,7.059999999999894,-0.5332019,-0.28648013,0.41459736,3.72414,-10.148457,-0.82863873
707,7.069999999999894,-0.5332019,-0.28648013,0.41459736,3.72414,-10.148457,-0.82863873
708,7.0799999999998935,-0.43874508,-0.17494924,0.21537842,3.6135733,-4.6476154,-0.66355234
709,7.089999999999893,-0.43984273,-0.12543415,-0.0026221042,3.359148,-3.552945,-0.48487428
710,7.099999999999893,-0.53314084,-0.02426971,-0.9365181,1.9014708,-2.9863675,0.014966198
711,7.109999999999893,-0.5132617,0.03963646,-0.8651115,-0.086437434,-3.457039,0.58184916
712,7.119999999999893,-0.5132617,0.03963646,-0.8651115,-0.086437434,-3.457039,0.58184916
713,7.129999999999892,-0.18330337,0.090554066,0.14787449,-1.3391694,-2.92467,1.0732902
714,7.139999999999892,-0.17171735,0.107201375,0.1478135,-1.3968961,-2.7004826,1.0144944
715,7.149999999999892,-0.32294568,0.39313272,0.23928225,-1.7275269,-2.3417518,0.7405214
716,7.159999999999892,-0.32294568,0.39313272,0.23928225,-2.0928242,-2.499355,0.5688683
717,7.169999999999892,-0.3574599,0.41789025,0.26300314,-2.44621,-3.8012617,0.70417494
718,7.179999999999891,-0.47453988,0.500517,0.27349156,-2.44621,-3.8012617,0.70417494
719,7.189999999999891,-0.42715907,0.53173834,0.19653587,-2.6427557,-5.548031,1.4001031
720,7.199999999999891,-0.32703125,0.4953338,0.19507235,-2.7612636,-5.9658628,1.6946929
721,7.209999999999891,-0.32703125,0.4953338,0.19507235,-2.7559185,-5.5686474,1.9364429
722,7.2199999999998905,-0.16458277,0.44167212,0.3153233,-2.5024095,-4.3001857,1.9414824
723,7.22999999999989,-0.13854466,0.4122192,0.36221626,-2.5024095,-4.3001857,1.9414824
724,7.23999999999989,-0.13854466,0.4122192,0.36221626,-2.324495,-3.6436584,1.8689423
725,7.24999999999989,-0.015061854,0.12744646,0.5175302,-1.3321444,0.013897184,0.65026605
726,7.25999999999989,-0.05939371,0.029391957,0.5728993,-1.3321444,0.013897184,0.65026605
727,7.269999999999889,-0.088968605,-0.03731925,0.49448007,-0.6768387,2.445599,-0.23289238
728,7.279999999999889,-0.10665256,-0.07969977,0.3905106,-0.5296202,3.0260737,-0.3921755
729,7.289999999999889,-0.15238695,-0.16921718,0.38483953,-0.35048392,4.0986004,-0.58261275
730,7.299999999999889,-0.24037987,-0.23550156,0.40081608,-0.1301143,5.2167892,-0.5821546
731,7.309999999999889,-0.56161815,-0.41435343,0.5577155,0.13683382,6.5041876,-0.36056322
732,7.319999999999888,-0.9605439,-0.6776005,0.68656445,0.54733527,8.923519,0.43203443
733,7.329999999999888,-1.4073992,-1.2217176,0.559179,0.656222,10.346072,1.0997101
734,7.339999999999888,-1.8661455,-4.229515,1.0359751,-4.7988048,6.154162,4.074929
735,7.349999999999888,-1.2546464,-7.6673374,1.8377292,-7.517613,2.95277,5.855907
736,7.3599999999998875,-1.2546464,-7.6673374,1.8377292,-7.517613,2.95277,5.855907
737,7.369999999999887,-0.34825203,-7.1775527,1.4670368,5.0582695,0.43982297,3.667635
738,7.379999999999887,-0.12781233,-6.118101,0.42606148,7.458512,5.1062226,1.0554224
739,7.389999999999887,0.1451914,-4.31452,0.027989438,6.7297497,10.325302,-0.7556403
740,7.399999999999887,0.62991476,-2.6790586,0.2602591,6.1973805,11.65424,-1.1339186
741,7.4099999999998865,0.58942467,-2.2324471,0.09500554,4.808273,12.081693,-3.1482468
742,7.419999999999886,0.58942467,-2.2324471,0.09500554,4.808273,12.081693,-3.1482468
743,7.429999999999886,0.50624907,-1.7408333,-0.07219934,2.392301,8.138864,-3.7723982
744,7.439999999999886,0.18671821,-0.889869,-0.20915854,1.0216721,6.1885233,-3.5552356
745,7.449999999999886,0.11433593,-0.6489403,-0.19379179,-0.02031127,4.59447,-3.2311716
746,7.459999999999885,0.11433593,-0.6489403,-0.19379179,-0.02031127,4.59447,-3.2311716
747,7.469999999999885,0.11433593,-0.6489403,-0.19379179,-0.02031127,4.59447,-3.2311716
748,7.479999999999885,0.0070126047,-0.090554066,-0.014147166,-2.6616926,1.281748,-1.9691241
749,7.489999999999885,-0.008598062,-0.03683142,0.053783625,-3.025921,0.95157534,-1.6740762
750,7.4999999999998845,-6.0979168e-05,0.03305071,0.09000525,-3.3104315,0.6965391,-1.3041973
751,7.509999999999884,0.00060979166,0.050124876,0.10543298,-3.3971744,0.44608435,-1.0322095
752,7.519999999999884,0.0009756667,0.064820856,0.11207971,-3.4492507,0.23258694,-0.84436846
753,7.529999999999884,0.008110229,0.08451713,0.16793664,-3.4268012,-0.10476339,-0.46471575
754,7.539999999999884,0.00060979166,0.15049659,0.39508402,-3.2010865,-0.50426924,-0.011453724
755,7.5499999999998835,0.07982173,0.15769213,0.51131034,-2.6946793,-1.237613,0.44730607
756,7.559999999999883,0.13750802,0.16561942,0.5882661,-2.3606887,-1.6684257,0.66905016
757,7.569999999999883,0.1583629,0.15189911,0.5116762,-1.8032742,-2.4344506,1.0474812
758,7.579999999999883,0.21781757,0.12226323,0.43173254,-1.333977,-3.1094568,1.4692836
759,7.589999999999883,0.21781757,0.12226323,0.43173254,-1.333977,-3.1094568,1.4692836
760,7.599999999999882,0.24733151,0.11506769,0.25861263,-1.0261009,-3.5789068,1.9956968
761,7.609999999999882,0.24733151,0.11506769,0.25861263,-0.7509061,-3.953978,2.3730588
762,7.619999999999882,0.2333063,0.12061679,0.19799936,-0.6282749,-4.1030293,2.5433373
763,7.629999999999882,0.21928109,0.11756783,0.18860857,-0.5183192,-4.1570907,2.6580274
764,7.6399999999998816,0.22617173,0.13019052,0.16854642,-0.08475755,-4.063934,2.7692049
765,7.649999999999881,0.23397705,0.13220283,0.1671439,0.01740966,-3.9741366,2.7548494
766,7.659999999999881,0.21726878,0.12958074,0.13830076,0.28160888,-3.4941492,2.6371052
767,7.669999999999881,0.18110813,0.12580003,0.099457026,0.52183163,-2.9181032,2.4723244
768,7.679999999999881,0.1723881,0.12720254,0.0866514,0.6797403,-2.5094345,2.3787093
769,7.6899999999998805,0.15098442,0.1411058,0.07604102,0.8402451,-2.1180224,2.272877
770,7.69999999999988,0.13305654,0.15653352,0.05573496,1.0855075,-1.5370897,2.0971005
771,7.70999999999988,0.11811664,0.1583629,0.040917024,1.1919508,-1.2777774,1.9999728
772,7.71999999999988,0.113421254,0.16263144,0.01695221,1.3384057,-0.89873546,1.8048013
773,7.72999999999988,0.11829959,0.17190027,0.01103723,1.3927728,-0.6826419,1.6574302
774,7.739999999999879,0.13208087,0.18946227,-0.010000584,1.4311045,-0.34956762,1.3578007
775,7.749999999999879,0.15135029,0.19001108,-0.036587503,1.4184291,-0.086437434,1.0900891
776,7.759999999999879,-3.7830257,-2.1811028,-6.0637074,1.8597792,2.2605069,0.6965391
777,7.769999999999879,-3.7830257,-2.1811028,-6.0637074,-1.1707232,9.86807,1.7948748
778,7.779999999999879,0.6154627,-0.5390558,1.6299732,-6.558707,24.301746,3.2968397
779,7.789999999999878,0.1349469,-1.6921718,-5.2195725,-4.928308,24.298082,1.4280503
780,7.799999999999878,2.0745113,-7.660386,-9.76307,-11.835514,6.317721,-0.20295998
781,7.809999999999878,2.5938098,-2.1650653,1.2828797,1.7420349,-13.381309,-0.3555236
782,7.819999999999878,2.5938098,-2.1650653,1.2828797,1.7420349,-13.381309,-0.3555236
783,7.8299999999998775,1.4824035,-1.0896367,1.2399504,5.189453,-13.128105,-2.2041545
784,7.839999999999877,0.48277208,-1.1587261,0.77614284,6.5619144,-9.703594,-4.877759
785,7.849999999999877,0.9356034,-2.2083607,1.1590921,7.2169147,-8.630152,-5.5643716
786,7.859999999999877,0.9498116,-5.7536893,1.943528,7.822435,-5.9647937,-5.9910607
787,7.869999999999877,0.71784675,-7.1165133,2.4638023,7.822435,-5.9647937,-5.9910607
788,7.879999999999876,0.54936135,-7.8640566,1.9070015,5.7451878,5.035973,-0.19318613
789,7.889999999999876,0.6765029,-7.1085243,1.25861,3.8191295,7.4704237,0.8770498
790,7.899999999999876,-0.02042802,-3.8797386,1.092076,-0.3381139,8.802874,0.9653198
791,7.909999999999876,-0.7583979,-2.6765587,0.66686815,-0.31108314,7.779369,1.2498302
792,7.919999999999876,-1.2693423,-1.6413152,-1.6282048,-0.17730364,3.8817432,2.11451
793,7.929999999999875,-0.8496837,-0.7478485,-1.0224377,0.6649268,-9.112277,2.8693867
794,7.939999999999875,-0.7996198,-0.50118774,0.08226089,0.6649268,-9.112277,2.8693867
795,7.949999999999875,-0.7996198,-0.50118774,0.08226089,0.6649268,-9.112277,2.8693867
796,7.959999999999875,-0.77608186,-0.31154257,-0.09823744,1.9593502,-13.929713,4.0155225
797,7.9699999999998745,-0.6372933,-0.1662292,-0.17464434,3.1033483,-11.846815,3.615406
798,7.979999999999874,-0.6195483,0.07494339,-0.08774903,3.0599768,-11.0059595,2.183996
799,7.989999999999874,-0.54753196,0.19312102,-0.0022562293,2.930015,-10.546283,1.6013832
800,7.999999999999874,-0.6946747,1.5910685,-0.10323773,0.27305678,-9.030115,-3.901138
801,8.009999999999874,-1.2356209,1.630339,0.10915271,0.27305678,-9.030115,-3.901138
802,8.019999999999873,-1.5686282,1.6554015,0.20153615,-0.3538437,-6.3271894,-4.1253257
803,8.029999999999873,-1.0648183,0.930786,-1.6211921,-2.6943738,-3.3788483,-2.839607
804,8.039999999999873,-0.19080381,0.18104716,-0.6319881,-5.0853004,-2.459038,-2.1917844
805,8.049999999999873,-0.11390909,0.10683551,-0.22684251,-5.449071,-2.0425806,-2.134516
806,8.059999999999873,-0.11390909,0.10683551,-0.22684251,-5.449071,-2.0425806,-2.134516
807,8.069999999999872,-0.16927817,0.1484233,0.22190319,-4.774523,-0.28053987,-2.05434
808,8.079999999999872,-0.23659918,0.2300744,0.27769914,-4.0656137,0.3379612,-1.9876028
809,8.089999999999872,-0.29733443,0.2643447,0.289834,-3.4755177,0.50411654,-1.9295706
810,8.099999999999872,-0.37660733,0.28208962,0.3609357,-2.85045,0.53023106,-1.8180877
811,8.109999999999872,-0.4094141,0.29623678,0.41404852,-1.890628,0.57818395,-1.5577064
812,8.119999999999871,-0.3595332,0.27099144,0.3646554,-0.9472993,0.5920811,-1.1774428
813,8.129999999999871,-0.2920902,0.24105065,0.31355488,-0.46074513,0.5331327,-0.94791013
814,8.139999999999871,-0.108055085,0.18098617,0.07445556,0.25045475,0.16233744,-0.59315014
815,8.14999999999987,0.014086187,0.115006715,-0.20909756,0.25411993,-0.35506544,-0.54336464
816,8.15999999999987,-0.02134271,0.03866079,-0.22848894,-0.0364992,-0.9416488,-0.5439755
817,8.16999999999987,-0.11177482,-0.038477857,-0.10854292,-0.44730607,-1.466382,-0.42088616
818,8.17999999999987,-0.15909465,-0.086285524,-0.026099084,-0.7304421,-1.752267,-0.22937989
819,8.18999999999987,-0.1800105,-0.13781293,-0.09537142,-1.1539245,-1.909412,0.13683382
820,8.19999999999987,-0.18165694,-0.14275223,-0.12647079,-1.3348932,-1.9103284,0.27275133
821,8.20999999999987,-0.30495682,-0.1764737,0.2376968,-1.667204,-1.1180362,0.97203934
822,8.21999999999987,-0.34087354,-0.254588,0.26946694,-1.667204,-1.1180362,0.97203934
823,8.229999999999869,-0.34087354,-0.254588,0.26946694,-1.5338826,-0.5027421,1.2541064
824,8.239999999999869,-1.3187355,-2.1664069,-2.6358244,-3.6781723,6.05398,3.2728631
825,8.249999999999869,-2.0150566,-4.9067497,-0.8601721,-3.5175147,11.845746,4.3692136
826,8.259999999999868,-1.1478719,-6.6963053,0.50771254,0.35078937,14.755755,5.2073207
827,8.269999999999868,-0.45380697,-8.355183,0.5667404,2.6505444,16.35103,4.5020766
828,8.279999999999868,0.3852054,-8.620869,0.31526232,2.1051943,19.794325,1.3147347
829,8.289999999999868,0.75156826,-6.775578,0.41319484,1.30435,20.080362,-1.4013249
830,8.299999999999867,0.7998637,-4.550936,0.55984974,1.2565498,18.05061,-3.5195
831,8.309999999999867,0.55466646,-2.6624725,0.5653379,2.2075143,13.835945,-4.9776354
832,8.319999999999867,0.3213602,-1.7727253,0.3605698,2.750268,10.183276,-5.241682
833,8.329999999999867,0.15305771,-1.0534761,0.041038983,2.7484355,6.197228,-4.946481
834,8.339999999999867,0.050368793,-0.68583274,-0.14817938,1.9779817,3.0709722,-4.4173193
835,8.349999999999866,-0.0041465834,-0.34258097,-0.16513158,1.127199,1.2244794,-3.9758165
836,8.359999999999866,-0.029391957,-0.12421457,-0.10811607,0.30772337,-0.1740966,-3.6216674
837,8.369999999999866,-0.04994194,0.021403689,0.06335735,-0.50823987,-1.1991285,-3.3009632
838,8.379999999999866,-0.028660208,0.109335646,0.07219934,-0.98761636,-1.7168368,-2.9911017
839,8.389999999999866,-0.02042802,0.117689796,0.07561417,-1.5928311,-2.1456642,-2.4058928
840,8.399999999999865,-0.0190255,0.12890996,0.077931374,-1.8193095,-2.0418172,-2.1545217
841,8.409999999999865,-0.0190255,0.12890996,0.077931374,-1.8193095,-2.0418172,-2.1545217
842,8.419999999999865,-0.0190255,0.12890996,0.077931374,-1.8193095,-2.0418172,-2.1545217
843,8.429999999999865,-0.04677102,0.1765347,0.09457869,-1.8193095,-2.0418172,-2.1545217
844,8.439999999999864,-0.06219875,0.18629137,0.12159246,-2.4422393,-1.3686435,-1.6656768
845,8.449999999999864,-0.06219875,0.18629137,0.12159246,-2.4422393,-1.3686435,-1.6656768
846,8.459999999999864,-0.12775135,0.18623038,0.24086772,-2.6019804,-1.4679092,-1.2541064
847,8.469999999999864,-0.14586218,0.16689998,0.60784036,-2.4355197,-2.0314324,-0.9204212
848,8.479999999999864,-0.07476046,0.20397532,0.49015057,-1.8843665,-4.178471,0.019242255
849,8.489999999999863,-0.024513626,0.27855286,0.544361,-1.6203201,-5.6853228,0.82604253
850,8.499999999999863,0.053112853,0.31300604,0.51155424,-1.3342824,-6.9214087,1.4873042
851,8.509999999999863,0.09750569,0.31312802,0.45447776,-1.3342824,-6.9214087,1.4873042
852,8.519999999999863,0.13299556,0.28922418,0.3791075,-0.67103547,-8.688031,2.4396431
853,8.529999999999863,0.14013013,0.26562527,0.31270117,-0.3368922,-9.18222,2.7177396
854,8.539999999999862,0.1422644,0.19665782,0.23464784,0.061239243,-9.333258,2.9177978
855,8.549999999999862,0.14238635,0.15269183,0.20446315,0.39568797,-9.057605,2.959184
856,8.559999999999862,0.13470298,0.101408355,0.17336378,0.7324274,-8.516072,2.9064968
857,8.569999999999862,0.102566965,0.07378479,0.13293459,1.1323915,-7.665595,2.7305677
858,8.579999999999862,0.09256637,0.069760166,0.11586042,1.4317154,-6.902319,2.5189028
859,8.589999999999861,0.06335735,0.06061329,0.06299148,1.7192802,-6.008776,2.2246184
860,8.599999999999861,0.046832,0.079333894,-0.0017074167,1.8666514,-5.162422,1.9052887
861,8.60999999999986,0.041343875,0.08646846,-0.038416874,1.8759671,-4.4170136,1.6404786
862,8.61999999999986,-0.016342416,0.13708118,-0.10293283,1.7823521,-3.4807103,1.3387111
863,8.62999999999986,-1.5511271,0.0032318959,-1.3217845,1.6954565,-2.877328,1.1632402
864,8.63999999999986,-0.43807435,-0.05390558,-0.6252804,-1.4329371,4.840038,2.5357015
865,8.64999999999986,-0.43807435,-0.05390558,-0.6252804,-1.4329371,4.840038,2.5357015
866,8.65999999999986,0.08238286,-0.05433244,-0.26086888,-2.0893118,6.9689035,2.2206478
867,8.66999999999986,0.08238286,-0.05433244,-0.26086888,-2.0893118,6.9689035,2.2206478
868,8.67999999999986,0.27769914,-0.15964346,-0.035428897,-1.7119498,14.953829,0.549626
869,8.68999999999986,0.32398233,-2.6057618,-6.987115,-6.947065,25.677263,-1.2935071
870,8.699999999999859,1.5903977,-5.1568255,1.2773916,-6.64377,0.79809546,-0.15851954
871,8.709999999999859,1.5903977,-5.1568255,1.2773916,-6.64377,0.79809546,-0.15851954
872,8.719999999999859,0.68308866,-1.6046059,1.8917567,6.384458,-1.8726074,0.29428434
873,8.729999999999858,1.8960252,-3.4120283,1.3175159,8.246986,-4.986493,-0.31963524
874,8.739999999999858,2.7796135,-5.9565673,0.5311895,7.7969313,-5.146998,-1.2577715
875,8.749999999999858,2.7664418,-6.6277037,0.39209604,7.1512465,-3.9216022,-0.9610438
876,8.759999999999858,2.2603147,-5.777654,0.34489816,5.0032916,-2.702315,-0.1611157
877,8.769999999999857,1.9717004,-4.499165,0.3233725,3.6829066,-1.5824465,0.022907447
878,8.779999999999857,0.9940214,-2.2817185,0.22104947,2.6300802,-0.52458054,-0.6401868
879,8.789999999999857,0.15415533,-0.8823075,0.07408969,2.4020748,-0.18707748,-0.84849185
880,8.799999999999857,0.15415533,-0.8823075,0.07408969,2.2971587,0.2322815,-0.83016586
881,8.809999999999857,-0.010549396,-0.594242,0.09372498,2.3692408,0.56505036,-0.61453044
882,8.819999999999856,-0.13311753,-0.3958158,0.044758707,2.4439192,0.72692966,-0.41157046
883,8.829999999999856,-0.18568157,-0.041282896,-0.22525704,5.8873663,-5.638592,-1.0720685
884,8.839999999999856,-0.4170975,-0.21428078,-0.52807957,5.8873663,-5.638592,-1.0720685
885,8.849999999999856,-0.54728806,-0.41478032,-0.2057437,6.34521,-7.8270164,-1.3060299
886,8.859999999999856,-0.7072974,-0.47460085,-0.008293167,6.2566347,-7.368409,-1.2044735
887,8.869999999999855,-1.0249379,-0.43819633,-0.04311227,6.127131,-6.0973516,-0.43127087
888,8.879999999999855,-1.0249379,-0.43819633,-0.04311227,5.8165064,-5.321858,0.3587306
889,8.889999999999855,-1.4240465,-0.28824854,-1.2842822,4.629595,-6.500828,1.2406673
890,8.899999999999855,-1.323187,-0.19519432,-0.8872469,4.629595,-6.500828,1.2406673
891,8.909999999999854,-1.323187,-0.19519432,-0.8872469,4.629595,-6.500828,1.2406673
892,8.919999999999854,-1.0544518,-0.07884607,-0.38453463,2.133294,-7.9577417,3.0928106
893,8.929999999999854,-0.6524161,0.4103898,-0.122446164,1.5160148,-7.5643444,3.405421
894,8.939999999999854,-0.74443364,1.2650738,-0.0037197291,1.1313224,-6.8048863,2.0039434
895,8.949999999999854,-0.86492854,1.2876971,0.1419595,0.6606508,-7.0217433,1.0990993
896,8.959999999999853,-0.8093155,1.1045157,0.20031658,0.39690968,-7.132615,0.6769914
897,8.969999999999853,-0.4299641,0.7013214,-0.11744587,-0.3943135,-6.0370283,0.47418416
898,8.979999999999853,-0.2112928,0.4608196,-0.29794422,-0.88300574,-5.371338,0.44638976
899,8.989999999999853,0.006768687,0.228306,-0.27733323,-2.4422393,-3.331659,0.4550946
900,8.999999999999853,0.069028415,0.152204,-0.1188484,-3.3638823,-2.319608,0.45860708
901,9.009999999999852,0.1326297,0.11927526,-0.02420873,-3.748422,-1.9802724,0.42180246
902,9.019999999999852,0.15049659,0.051832296,0.1829375,-3.936721,-1.2530373,0.24510968
903,9.029999999999852,0.06488183,0.0015854583,0.49063838,-3.491553,-0.7341073,0.111177474
904,9.039999999999852,0.066772185,-0.030306645,0.56369144,-2.8495336,-0.5726862,0.0888809
905,9.049999999999851,0.066772185,-0.030306645,0.56369144,-2.8495336,-0.5726862,0.0888809
906,9.059999999999851,0.050002918,-0.07835823,0.51533496,-1.9886718,-0.13530666,-0.007788532
907,9.069999999999851,-0.09488358,-0.21068303,0.5603376,-0.6436992,1.4624114,0.0062613687
908,9.07999999999985,-0.2876997,-0.42807376,0.6196093,0.18142697,3.738648,0.45356745
909,9.08999999999985,-0.8063275,-0.9342008,0.92566377,0.6385069,6.67355,1.3875804
910,9.09999999999985,-0.8063275,-0.9342008,0.92566377,0.6385069,6.67355,1.3875804
911,9.10999999999985,-0.94011587,-7.1026096,-5.7993016,-5.1987686,17.331926,5.4614406
912,9.11999999999985,-1.3517863,-9.12913,-1.4769764,-9.150303,21.214281,5.552765
913,9.12999999999985,0.013415418,-9.408537,0.68186903,0.33185256,15.337147,5.5901804
914,9.13999999999985,0.7659593,-8.510375,0.14708175,2.7592783,13.399024,4.443892
915,9.14999999999985,1.2859286,-5.7090526,0.35526463,3.1910074,12.212724,0.48899764
916,9.15999999999985,1.0659158,-3.8394923,0.33642206,2.4828618,10.643411,-1.8272507
917,9.169999999999849,1.0659158,-3.8394923,0.33642206,2.0425806,9.080512,-2.9048169
918,9.179999999999849,0.4028284,-1.5141128,0.14866722,1.1430815,7.0671,-3.474907
919,9.189999999999849,0.08470006,-0.61156005,-0.014269125,1.1430815,7.0671,-3.474907
920,9.199999999999848,0.08470006,-0.61156005,-0.014269125,-0.42073345,4.097684,-3.216969
921,9.209999999999848,0.01536675,-0.18915738,-0.07719963,-1.4975362,2.568383,-2.6925414
922,9.219999999999848,0.024757542,-0.11012838,-0.070248,-1.8956676,2.132836,-2.5147796
923,9.229999999999848,-0.05768629,0.06530869,0.22842796,-3.0839531,1.3649784,-1.717753
924,9.239999999999847,-0.09433477,0.061527982,0.33678794,-3.0839531,1.3649784,-1.717753
925,9.249999999999847,-0.07097975,0.07421165,0.28715092,-2.7908907,1.5848899,-1.2249376
926,9.259999999999847,-0.075980045,0.08524887,0.24403864,-2.7908907,1.5848899,-1.2249376
927,9.269999999999847,-0.075980045,0.08524887,0.24403864,-2.6697865,1.7774651,-1.0451905
928,9.279999999999847,-0.08000467,0.09171267,0.30142003,-2.4083362,1.9688187,-0.75441855
929,9.289999999999846,-0.044270877,0.16842447,0.28672403,-2.0952678,1.794264,-0.4457789
930,9.299999999999846,-0.058540005,0.22769623,0.41648772,-1.971873,1.1096367,-0.111941054
931,9.309999999999846,-0.058540005,0.22769623,0.41648772,-1.971873,1.1096367,-0.111941054
932,9.319999999999846,-0.058540005,0.22769623,0.41648772,-1.971873,1.1096367,-0.111941054
933,9.329999999999846,-0.0042075627,0.21903718,0.49752906,-1.4117095,-2.1502457,0.95096445
934,9.339999999999845,0.033111688,0.18190086,0.39112037,-1.1438452,-3.8234055,1.5393804
935,9.349999999999845,0.033111688,0.18190086,0.39112037,-1.1438452,-3.8234055,1.5393804
936,9.359999999999845,0.10293283,0.15049659,0.19684075,-1.0267117,-5.477934,2.3005185
937,9.369999999999845,0.10293283,0.15049659,0.19684075,-0.8686504,-6.011067,2.5778513
938,9.379999999999844,0.10293283,0.15049659,0.19684075,-0.8686504,-6.011067,2.5778513
939,9.389999999999844,0.10293283,0.15049659,0.19684075,-0.8686504,-6.011067,2.5778513
940,9.399999999999844,0.11866546,0.14037405,0.193182,-0.7328856,-6.230978,2.6957483
941,9.409999999999844,0.19421865,0.15830192,0.18202282,0.29901853,-6.379571,2.6025913
942,9.419999999999844,0.21031716,0.1803154,0.16879034,0.980286,-6.009692,2.2737932
943,9.429999999999843,0.22104947,0.20062146,0.107201375,1.3984233,-5.33377,1.9494237
944,9.439999999999843,0.21232945,0.2180615,0.08549279,1.6823229,-4.5879035,1.6583464
945,9.449999999999843,0.21232945,0.2180615,0.08549279,1.6823229,-4.5879035,1.6583464
946,9.459999999999843,0.22733033,0.27056456,0.015305771,1.9451476,-3.0821207,1.0383182
947,9.469999999999843,0.22733033,0.27056456,0.015305771,1.9451476,-3.0821207,1.0383182
948,9.479999999999842,0.18421806,0.24086772,-0.042258564,1.9685133,-2.5868616,0.8040514
949,9.489999999999842,0.15342359,0.23470882,-0.07805333,1.7394388,-1.4204144,-0.08552113
950,9.499999999999842,0.15342359,0.23470882,-0.07805333,1.7394388,-1.4204144,-0.08552113
951,9.509999999999842,-0.36026493,0.19732858,-0.7074803,1.340391,-0.7994699,-0.32177326
952,9.519999999999841,-2.0380456,-0.9817646,-2.0713403,-5.553223,10.257955,4.113261
953,9.529999999999841,0.485882,-0.1750712,0.65930676,-7.1520104,11.65928,3.5921931
954,9.539999999999841,0.538568,-0.17281497,0.8026078,-6.3743787,10.157009,2.2368357
955,9.54999999999984,0.538568,-0.17281497,0.8026078,-6.3743787,10.157009,2.2368357
956,9.55999999999984,0.36117962,-2.3364167,-7.413969,-5.7161717,11.633471,0.053603426
957,9.56999999999984,-0.24519724,-4.9308367,-11.69989,-7.3963566,25.320059,-1.6061175
958,9.57999999999984,-0.0617719,-3.0894485,1.5527126,1.7493653,5.6248474,-0.9450085
959,9.58999999999984,-0.35367918,-1.4396572,2.2872677,6.204711,-3.157868,0.26908615
960,9.59999999999984,-0.35367918,-1.4396572,2.2872677,8.444143,-6.0866613,0.92164296
961,9.60999999999984,0.68497896,-5.85461,0.3413004,8.963379,-9.409158,1.9466748
962,9.61999999999984,1.1110405,-7.873996,0.2110489,7.625278,-8.686962,3.983147
963,9.62999999999984,1.5328333,-8.653858,-0.32581168,7.625278,-8.686962,3.983147
964,9.639999999999839,1.5328333,-8.653858,-0.32581168,5.6969295,-6.946149,4.8802023
965,9.649999999999839,0.8198649,-5.854549,-0.49063838,0.66248333,-4.3783765,5.461746
966,9.659999999999838,0.40880433,-3.3966615,-0.5669233,0.56153786,-3.804316,4.587751
967,9.669999999999838,0.22117145,-1.279038,-0.058783915,2.0094411,-4.5263586,2.208125
968,9.679999999999838,0.15409435,-0.8599282,0.06890646,2.218357,-4.725348,1.3037392
969,9.689999999999838,0.07829725,-0.52582335,0.13909347,2.255009,-4.599052,0.7467828
970,9.699999999999838,-0.08823685,-0.29343176,0.12823918,2.3692408,-4.318359,0.3304781
971,9.709999999999837,-0.14738666,-0.2222081,0.10287185,2.4524713,-4.095699,0.24572055
972,9.719999999999837,-0.14165461,-0.12665373,0.110555224,2.6502388,-3.4636059,0.16355917
973,9.729999999999837,-0.12573905,-0.069577225,0.074577525,2.8828259,-2.7177396,0.048258353
974,9.739999999999837,-0.16379005,0.039270584,-0.5164326,2.8845057,-2.1516201,-0.13148874
975,9.749999999999837,-0.15287478,0.14714272,-0.6492452,2.1169536,-2.639396,-0.62858033
976,9.759999999999836,0.000365875,0.10683551,-0.29733443,1.474476,-3.0923526,-1.1775955
977,9.769999999999836,0.029452939,0.14177656,-0.10451829,1.0361801,-3.1645875,-1.9495764
978,9.779999999999836,-0.13000758,0.16189969,-0.05860098,0.7493789,-3.2319353,-2.460107
979,9.789999999999836,-0.37093627,0.23050125,0.06390616,0.3119994,-2.4268148,-3.2846224
980,9.799999999999836,-0.37093627,0.23050125,0.06390616,-0.062308256,-1.3507757,-3.743993
981,9.809999999999835,-0.6736979,0.24550213,0.15909465,-0.062308256,-1.3507757,-3.743993
982,9.819999999999835,-0.7096146,0.24409962,0.0954324,-0.35613444,1.0125091,-3.9255729
983,9.829999999999835,-0.7554099,0.30489585,-0.1445816,-0.6443101,2.8832839,-3.8165333
984,9.839999999999835,-0.7514463,0.3448372,-0.17574196,-0.6443101,2.8832839,-3.8165333
985,9.849999999999834,-0.7514463,0.3448372,-0.17574196,-0.78038037,3.4744487,-3.749949
986,9.859999999999834,-0.7514463,0.3448372,-0.17574196,-0.78038037,3.4744487,-3.749949
987,9.869999999999834,-0.7514463,0.3448372,-0.17574196,-0.78038037,3.4744487,-3.749949
988,9.879999999999834,-0.70827305,0.39349857,-0.13055639,-1.5358679,3.0546317,-3.0398183
989,9.889999999999834,-0.7998028,0.4030723,-0.14671588,-1.6662877,2.5294402,-2.682462
990,9.899999999999833,-0.7998028,0.4030723,-0.14671588,-1.7922786,1.9874501,-2.2052236
991,9.909999999999833,-0.8719411,0.42923236,-0.21159773,-1.9506454,1.582141,-1.6331482
992,9.919999999999833,-0.8153525,0.37654635,-0.18891345,-2.0809124,1.3321444,-1.016327
993,9.929999999999833,-0.60716957,0.18452296,-0.08067544,-2.0329595,0.9443977,-0.12873985
994,9.939999999999833,-0.38996178,0.06433302,-0.034636166,-1.8565722,0.90316427,0.15790866
995,9.949999999999832,-0.24446549,-0.021891521,-0.010183521,-1.6334536,0.99021256,0.19165897
996,9.959999999999832,-0.1595215,-0.09049308,0.018293751,-1.3674219,1.2066116,0.088422745
997,9.969999999999832,-0.15116736,-0.11915329,0.03286777,-1.2134838,1.326952,-0.00045814895
998,9.979999999999832,-0.42282957,-0.24757542,-0.12226323,-0.8378017,1.505172,0.035430185
999,9.989999999999831,-0.42282957,-0.24757542,-0.12226323,-0.8378017,1.505172,0.035430185
1000,9.999999999999831,-0.8994427,-0.4293543,-0.570704,-1.0827587,1.0432051,0.6243043
