id,timestamp,acc_x,acc_y,acc_z,gyro_x,gyro_y,gyro_z
0,0,-0.57204556,-0.3050178,0.69766265,3.1086931,-6.6662197,-0.8906415
1,0.01,-0.5245428,-0.25946635,0.5450318,3.498578,-7.0269356,-1.3051136
2,0.02,-0.5245428,-0.25946635,0.5450318,3.498578,-7.0269356,-1.3051136
3,0.03,-0.56100833,-0.2051949,0.36026493,3.9854376,-6.431953,-1.3448198
4,0.04,-0.56100833,-0.2051949,0.36026493,3.9854376,-6.431953,-1.3448198
5,0.05,-0.41435343,-0.12811723,0.11762882,4.5653014,-5.5417695,-1.1136073
6,0.060000000000000005,-0.24629487,-0.095066525,-0.08915155,4.6978593,-4.7532954,-0.93492925
7,0.07,-0.12592198,-0.008537084,-0.23812364,4.537049,-4.1670175,-0.8025242
8,0.08,-0.12592198,-0.008537084,-0.23812364,4.537049,-4.1670175,-0.8025242
9,0.09,-0.08280971,0.04841746,-0.3422151,3.5703547,-3.7441459,-0.48502702
10,0.09999999999999999,-0.018293751,0.120738745,-0.40532854,3.147483,-3.8052323,-0.3736968
11,0.10999999999999999,0.08604161,0.15927759,-0.4291104,2.3128886,-4.2386413,-0.15195273
12,0.11999999999999998,0.097200796,0.15287478,-0.47179583,1.8295414,-4.6809077,-0.094531395
13,0.12999999999999998,0.08720021,0.13439809,-0.436123,1.3942999,-5.127908,-0.06612616
14,0.13999999999999999,0.14238635,0.12890996,-0.44423324,1.341002,-5.362633,-0.06169739
15,0.15,0.21092694,0.12665373,-0.51905465,1.4489723,-5.3656874,-0.10262536
16,0.16,0.24086772,0.11897036,-0.6838814,1.884672,-4.914258,-0.40515637
17,0.17,0.12708059,0.0734799,-1.0826851,1.9669861,-4.6917505,-0.5401576
18,0.18000000000000002,0.12708059,0.0734799,-1.0826851,1.9669861,-4.6917505,-0.5401576
19,0.19000000000000003,0.084578104,0.09750569,-1.2875141,1.8721492,-4.4312167,-0.57604593
20,0.20000000000000004,0.03609967,0.13049541,-1.531065,1.6517797,-4.1237984,-0.5749769
21,0.21000000000000005,0.029940773,0.178547,-1.876756,1.1748465,-3.5127807,-0.46807548
22,0.22000000000000006,0.09653002,0.33178765,-1.9481014,0.027183503,-1.8863518,-0.12965615
23,0.23000000000000007,0.12390967,0.42045137,-1.7111365,-0.2144137,-0.4934264,0.19349156
24,0.24000000000000007,0.12390967,0.42045137,-1.7111365,-0.2144137,-0.4934264,0.19349156
25,0.25000000000000006,0.20629252,0.4078287,-1.4055698,-0.37415496,1.5360206,0.56214875
26,0.26000000000000006,0.22446433,0.409658,-1.3255042,-0.5030475,1.9906571,0.6377433
27,0.2700000000000001,0.24678269,0.44825786,-1.039207,-0.7067711,2.4799602,0.7797695
28,0.2800000000000001,0.38325405,0.43484247,-0.7804114,-0.7067711,2.4799602,0.7797695
29,0.2900000000000001,0.38325405,0.43484247,-0.7804114,-1.0595458,2.6198483,0.9202685
30,0.3000000000000001,0.45319718,0.3500814,-0.60857207,-1.193478,2.5213463,0.894154
31,0.3100000000000001,0.48429656,0.28849244,-0.5626548,-1.1763737,2.4260514,0.8237518
32,0.3200000000000001,0.48429656,0.28849244,-0.5626548,-1.1763737,2.4260514,0.8237518
33,0.3300000000000001,0.48923588,0.22446433,-0.62808543,-1.1763737,2.4260514,0.8237518
34,0.34000000000000014,0.4911872,0.22306179,-0.6261341,-0.8321512,2.850908,0.27977628
35,0.35000000000000014,0.4911872,0.22306179,-0.6261341,-0.8321512,2.850908,0.27977628
36,0.36000000000000015,0.49637043,0.1967188,-0.6413179,-0.82802784,2.8996246,0.14385876
37,0.37000000000000016,0.48155248,0.18921836,-0.6706489,-0.9960158,2.968805,-0.14385876
38,0.38000000000000017,0.4672224,0.18818171,-0.6478427,-1.2562444,3.034015,-0.3390302
39,0.3900000000000002,0.40343818,0.2080609,-0.56637454,-1.5289958,3.1175508,-0.5160284
40,0.4000000000000002,0.3480691,0.24592897,-0.5084443,-1.6751453,3.1946726,-0.56123245
41,0.4100000000000002,0.3480691,0.24592897,-0.5084443,-1.6751453,3.1946726,-0.56123245
42,0.4200000000000002,0.22312276,0.22897679,-0.3852054,-2.1054997,3.3896914,-0.5317582
43,0.4300000000000002,0.22312276,0.22897679,-0.3852054,-2.1054997,3.3896914,-0.5317582
44,0.4400000000000002,0.10177423,0.22678153,-0.23629428,-2.6989553,3.8657079,-0.44089198
45,0.45000000000000023,0.10177423,0.22678153,-0.23629428,-2.8955014,4.0123158,-0.3313944
46,0.46000000000000024,-0.092932254,0.24720955,0.12012896,-3.098614,4.197255,0.027488936
47,0.47000000000000025,-0.062076796,0.19031598,0.24007498,-3.1865785,4.2203155,0.37064248
48,0.48000000000000026,-0.0018903542,0.102688916,0.31678677,-3.2236886,4.134947,0.5358815
49,0.49000000000000027,0.12269009,-0.0026830835,0.35392308,-3.2050571,3.9495492,0.4596761
50,0.5000000000000002,0.1823277,-0.05585692,0.36782634,-3.1827607,3.9090793,0.34376442
51,0.5100000000000002,0.18714507,-0.07604102,0.4358791,-3.1129694,3.9782598,-0.16371189
52,0.5200000000000002,0.027257688,-0.025184397,0.5057612,-3.114649,4.250095,-0.43890667
53,0.5300000000000002,-0.29349273,0.017927876,0.7262009,-3.1360295,4.8004847,-0.4266894
54,0.5400000000000003,-0.4443552,0.082626775,0.96414167,-2.9220738,5.2392383,-0.12003502
55,0.5500000000000003,-0.21684194,0.14013013,1.1397007,-2.4517076,5.571244,0.28893927
56,0.5600000000000003,-0.21684194,0.14013013,1.1397007,-1.7704402,5.757863,0.6435465
57,0.5700000000000003,-0.04701494,-0.042746395,1.0744529,-1.6650659,5.765957,0.6429357
58,0.5800000000000003,-0.112872444,-0.04085604,1.0342677,-1.7525724,4.7471867,-0.24404067
59,0.5900000000000003,-0.2625763,-0.086163566,1.0192058,-1.7525724,4.7471867,-0.24404067
60,0.6000000000000003,-0.57704586,-0.035550855,1.2897704,-2.5153904,3.8224893,-0.75762564
61,0.6100000000000003,-0.72309095,0.1372641,1.513259,-2.4312437,3.329063,-0.4662429
62,0.6200000000000003,-0.67973477,0.2022679,1.4807571,-2.254551,2.9854512,-0.0759
63,0.6300000000000003,-0.515213,0.14805742,1.2871484,-2.2936463,2.9639182,0.356898
64,0.6400000000000003,-0.4265493,0.14683785,1.1911061,-2.2936463,2.9639182,0.356898
65,0.6500000000000004,-0.4265493,0.14683785,1.1911061,-2.4987442,3.1874948,0.57986385
66,0.6600000000000004,-0.3690459,0.1253122,1.2079973,-2.905275,3.608839,0.81290895
67,0.6700000000000004,-0.4165487,-0.05573496,1.3866663,-2.9993484,3.6890152,0.8877399
68,0.6800000000000004,-0.40667006,-0.12214127,1.4669758,-2.8704557,3.7140608,0.8052731
69,0.6900000000000004,-0.35398406,-0.15122834,1.5746042,-2.5239425,3.880827,0.6220135
70,0.7000000000000004,-0.3670336,-0.1255561,1.5497855,-1.8438967,4.249484,0.3080288
71,0.7100000000000004,-0.6027181,-0.13695921,1.3366024,-0.9502009,5.142111,0.086132
72,0.7200000000000004,-0.74656796,-0.076528855,1.3036736,-0.9502009,5.142111,0.086132
73,0.7300000000000004,-0.74656796,-0.076528855,1.3036736,-0.75900006,5.402187,0.14248432
74,0.7400000000000004,-0.90377223,-0.042868353,1.1613482,-1.1678216,5.655085,0.37873647
75,0.7500000000000004,-0.95487285,-0.043905,1.2509876,-1.4372132,5.603467,0.4334089
76,0.7600000000000005,-0.95487285,-0.043905,1.2509876,-1.4372132,5.603467,0.4334089
77,0.7700000000000005,-0.92852974,-0.10579886,1.4888673,-1.7024814,4.5265117,0.47418416
78,0.7800000000000005,-0.9340179,-0.12817821,1.5114906,-1.561677,4.1329618,0.37995818
79,0.7900000000000005,-0.9340179,-0.12817821,1.5114906,-1.561677,4.1329618,0.37995818
80,0.8000000000000005,-0.9340179,-0.12817821,1.5114906,-1.561677,4.1329618,0.37995818
81,0.8100000000000005,-0.9340179,-0.12817821,1.5114906,-0.6592763,3.8414261,-0.0106901415
82,0.8200000000000005,-0.84193933,-0.11933623,1.3636771,-0.5357288,3.9190059,-0.07269296
83,0.8300000000000005,-0.8260848,-0.11817763,1.3842881,-0.21456642,4.2100835,-0.27122417
84,0.8400000000000005,-0.85340345,-0.09323715,1.4738665,0.087659165,4.349666,-0.40439278
85,0.8500000000000005,-0.87931955,-0.06756492,1.4625853,0.24770586,4.2992697,-0.46196684
86,0.8600000000000005,-0.93133485,-0.08707825,1.4145337,0.27382034,3.9199224,-0.4700608
87,0.8700000000000006,-0.91304106,-0.08848077,1.3864833,0.058184914,3.5402696,-0.3866777
88,0.8800000000000006,-0.8362683,-0.055369087,1.3912396,-0.34147367,3.0192015,-0.2695443
89,0.8900000000000006,-0.78138703,-0.042807378,1.4067285,-0.7912232,2.6064093,-0.11407909
90,0.9000000000000006,-0.7161393,-0.07445556,1.431669,-1.1242975,2.3361015,0.01450805
91,0.9100000000000006,-0.60491335,-0.08427321,1.6400347,-1.4158329,1.7594446,0.1386664
92,0.9200000000000006,-0.60491335,-0.08427321,1.6400347,-1.4158329,1.7594446,0.1386664
93,0.9300000000000006,-0.5629597,-0.090737,1.6750977,-0.93966347,0.9505063,-0.01160644
94,0.9400000000000006,-0.6007668,-0.08116327,1.697477,-0.93966347,0.9505063,-0.01160644
95,0.9500000000000006,-0.63961047,-0.0757971,1.481184,-0.20723604,0.21502456,-0.28038713
96,0.9600000000000006,-0.62991476,-0.050246835,1.3722751,0.09682214,0.07284568,-0.3465133
97,0.9700000000000006,-0.59973013,-0.0046344167,1.2501949,0.313832,0.07544186,-0.39278635
98,0.9800000000000006,-0.59973013,-0.0046344167,1.2501949,0.313832,0.07544186,-0.39278635
99,0.9900000000000007,-0.6535747,0.023294043,1.1070157,0.45372015,0.0786489,-0.4250095
100,1.0000000000000007,-0.6862595,0.024391668,1.0623181,0.46043968,-0.01282817,-0.4111123
101,1.0100000000000007,-0.7424823,0.045002624,1.0668305,0.43799037,-0.1337795,-0.39354995
102,1.0200000000000007,-0.7868142,0.046710044,1.059574,0.41920626,-0.29367346,-0.32818735
103,1.0300000000000007,-0.81620616,0.043478146,1.0315237,0.35185838,-0.5477934,-0.20280726
104,1.0400000000000007,-0.8360244,0.042319544,1.0123762,0.35185838,-0.5477934,-0.20280726
105,1.0500000000000007,-0.86566025,0.024086772,1.0132298,0.08170322,-0.8407033,0.08659015
106,1.0600000000000007,-0.825597,0.014756958,1.0576227,-0.026572637,-0.915687,0.25381452
107,1.0700000000000007,-0.7808992,0.0011586042,1.13281,-0.0917825,-0.978148,0.39690968
108,1.0800000000000007,-0.74364096,-0.035367917,1.2281814,-0.119729586,-1.0965031,0.49861875
109,1.0900000000000007,-0.699553,-0.092078544,1.3891664,-0.053145275,-1.4306464,0.44913867
110,1.1000000000000008,-0.699553,-0.092078544,1.3891664,-0.053145275,-1.4306464,0.44913867
111,1.1100000000000008,-0.6920526,-0.106957465,1.431303,-0.015271631,-1.6698002,0.3585779
112,1.1200000000000008,-0.87742925,-0.12689765,1.5086247,0.037110064,-2.206598,0.2669481
113,1.1300000000000008,-0.87742925,-0.12689765,1.5086247,0.05971208,-2.5983152,0.28206703
114,1.1400000000000008,-0.8977963,-0.11098208,1.4882576,0.033750303,-2.924212,0.31505376
115,1.1500000000000008,-0.88127095,-0.09531044,1.4799644,-0.103847094,-3.222925,0.36071593
116,1.1600000000000008,-0.86877024,-0.09854234,1.5044781,-0.16798794,-3.3366988,0.3828598
117,1.1700000000000008,-0.8929789,-0.12811723,1.6015568,-0.14935656,-3.8528798,0.38988474
118,1.1800000000000008,-0.8992598,-0.14909407,1.6075938,-0.03390302,-4.1648793,0.31245756
119,1.1900000000000008,-0.8992598,-0.14909407,1.6075938,-0.03390302,-4.1648793,0.31245756
120,1.2000000000000008,-0.85547674,-0.18360828,1.5339919,0.11942416,-4.50956,0.11911872
121,1.2100000000000009,-0.79333895,-0.21391493,1.5311869,0.21288654,-4.630053,-0.00580322
122,1.2200000000000009,-0.73193294,-0.2189762,1.537041,0.33292156,-4.690529,-0.11866058
123,1.2300000000000009,-0.73193294,-0.2189762,1.537041,0.5004513,-4.7006083,-0.259465
124,1.2400000000000009,-0.6913818,-0.23141594,1.5371019,0.8013025,-4.6550984,-0.44608435
125,1.2500000000000009,-0.6961991,-0.23239161,1.5322236,1.0108292,-4.588056,-0.5477934
126,1.260000000000001,-0.7601053,-0.20848778,1.52204,1.446987,-4.3353105,-0.69043046
127,1.270000000000001,-0.8653554,-0.17964463,1.4538654,1.6997325,-4.0723333,-0.66553766
128,1.280000000000001,-0.95243365,-0.15135029,1.4643537,1.6997325,-4.0723333,-0.66553766
129,1.290000000000001,-0.95243365,-0.15135029,1.4643537,1.6997325,-4.0723333,-0.66553766
130,1.300000000000001,-0.913224,-0.21946402,1.5869218,1.451874,-3.397938,-0.037415497
131,1.310000000000001,-0.913224,-0.21946402,1.5869218,1.0667235,-3.4353535,0.30298916
132,1.320000000000001,-0.7533366,-0.27733323,1.6213751,0.9433287,-4.023006,0.40240747
133,1.330000000000001,-0.5628987,-0.32038453,1.6588773,1.1305588,-4.7116036,0.29260445
134,1.340000000000001,-0.436184,-0.36496034,1.4920993,1.4588989,-5.327661,0.035430185
135,1.350000000000001,-0.4168536,-0.33087295,0.9928628,1.689806,-5.683032,-0.22831088
136,1.360000000000001,-0.4168536,-0.33087295,0.9928628,1.7673858,-5.553223,-1.0774136
137,1.370000000000001,-0.5638134,-0.2689791,0.82931674,1.6018413,-5.2076263,-1.0786353
138,1.380000000000001,-0.67833227,-0.16543648,0.8152305,1.3979651,-4.568814,-0.7877107
139,1.390000000000001,-0.70248,-0.0512225,0.91932195,1.3979651,-4.568814,-0.7877107
140,1.400000000000001,-0.5580204,-0.050368793,1.0503662,1.4382823,-4.310265,-0.2845105
141,1.410000000000001,-0.42807376,-0.11872645,1.062745,1.591304,-4.516585,-0.19700404
142,1.420000000000001,-0.2490999,-0.15787506,0.97877663,1.7705929,-4.815909,-0.31581733
143,1.430000000000001,-0.18805976,-0.15122834,0.81266934,1.9370537,-5.094769,-0.5520695
144,1.440000000000001,-0.18805976,-0.15122834,0.81266934,1.9370537,-5.094769,-0.5520695
145,1.450000000000001,-0.22757424,-0.06360127,0.56509393,1.9567541,-4.869665,-1.0691669
146,1.460000000000001,-0.24696562,0.060125455,0.58332676,2.0450242,-4.343099,-1.119716
147,1.470000000000001,-0.2552588,0.11762882,0.5957055,2.200642,-3.9477167,-1.0348058
148,1.480000000000001,-0.24897793,0.15531394,0.6250365,2.4291058,-3.6457965,-0.89629203
149,1.490000000000001,-0.2614177,0.19812131,0.62735367,2.7478247,-3.481321,-0.7481572
150,1.500000000000001,-0.23672113,0.22379355,0.52881134,3.0882292,-3.4677293,-0.5332854
151,1.5100000000000011,-0.22172025,0.2406238,0.43374482,2.8703032,-3.5772269,-0.20631973
152,1.5200000000000011,-0.14592315,0.2783089,0.33270234,2.5456283,-3.6596937,-0.0917825
153,1.5300000000000011,-0.043661084,0.33733675,0.304408,2.5456283,-3.6596937,-0.0917825
154,1.5400000000000011,0.08726119,0.36367974,0.36270407,2.2247713,-3.7433822,0.011759156
155,1.5500000000000012,0.20909756,0.35111806,0.62332904,2.1255057,-3.6986363,0.1638646
156,1.5600000000000012,0.21964696,0.27843088,0.7335184,2.1255057,-3.6986363,0.1638646
157,1.5700000000000012,0.23611133,0.23074517,0.5753994,3.3388367,-3.8140898,0.21242839
158,1.5800000000000012,0.27001578,0.12823918,0.30898145,3.3388367,-3.8140898,0.21242839
159,1.5900000000000012,0.33593425,0.022928167,0.016586334,3.6250272,-4.1335726,0.09437868
160,1.6000000000000012,0.36166742,-0.0035367915,-0.058844898,3.601356,-4.1960335,0.03940081
161,1.6100000000000012,0.37977824,-0.10116444,-0.30648127,3.5057557,-4.3592873,-0.15745051
162,1.6200000000000012,0.39776713,-0.14275223,-0.52216464,3.3657148,-4.5226936,-0.29840767
163,1.6300000000000012,0.39776713,-0.14275223,-0.52216464,3.3657148,-4.5226936,-0.29840767
164,1.6400000000000012,0.34691048,-0.12580003,-1.0637816,2.524248,-4.632191,-0.59559363
165,1.6500000000000012,0.3497765,-0.10482319,-1.2155588,2.0216584,-4.511087,-0.68859786
166,1.6600000000000013,0.32325056,-0.05725944,-1.3762999,1.4914275,-4.1300597,-0.78893244
167,1.6700000000000013,0.27788207,0.018842563,-1.4142289,1.2866349,-3.4393241,-0.8358164
168,1.6800000000000013,0.24141651,0.052442085,-1.4919773,1.3515394,-2.8115072,-0.8147415
169,1.6900000000000013,0.22543997,0.01762298,-1.6846715,1.4086553,-1.97508,-0.7848091
170,1.7000000000000013,0.2628812,0.015000875,-1.8221796,1.2551754,-1.2997686,-0.77274454
171,1.7100000000000013,0.30837163,0.05847902,-1.864194,1.2551754,-1.2997686,-0.77274454
172,1.7200000000000013,0.30837163,0.05847902,-1.864194,0.8176431,-0.49449542,-0.7493789
173,1.7300000000000013,0.30837163,0.05847902,-1.864194,-0.12034045,0.82527894,-0.65179324
174,1.7400000000000013,0.29843205,0.22903776,-1.4005086,-0.5914703,1.4987578,-0.5682574
175,1.7500000000000013,0.27215004,0.29422447,-1.2480606,-0.9486737,2.145206,-0.22693644
176,1.7600000000000013,0.28550446,0.42282957,-0.8470006,-0.9486737,2.145206,-0.22693644
177,1.7700000000000014,0.28550446,0.42282957,-0.8470006,-0.9486737,2.145206,-0.22693644
178,1.7800000000000014,0.42087823,0.395145,-0.61918247,-1.8026633,2.2802072,0.65041876
179,1.7900000000000014,0.4721617,0.363009,-0.56027657,-1.9637791,2.151162,0.7171558
180,1.8000000000000014,0.57387495,0.3088595,-0.46405149,-2.134974,1.953547,0.7156286
181,1.8100000000000014,0.6443059,0.29532212,-0.42715907,-2.1815524,1.9054414,0.57726765
182,1.8200000000000014,0.7008336,0.28123593,-0.36746046,-2.1815524,1.9054414,0.57726765
183,1.8300000000000014,0.6447328,0.29885888,-0.22543997,-2.1529946,1.9920316,0.39492437
184,1.8400000000000014,0.6260121,0.29641974,-0.2031826,-1.9669861,2.3270912,0.009315695
185,1.8500000000000014,0.56680137,0.29727346,-0.13067836,-1.6882788,2.3834434,-0.17027868
186,1.8600000000000014,0.4944191,0.32507995,-0.12738548,-1.4627168,2.4396431,-0.27672195
187,1.8700000000000014,0.47161287,0.33319017,-0.1413497,-1.267698,2.5714374,-0.27351493
188,1.8800000000000014,0.49759,0.3673385,-0.17464434,-1.0441214,2.7876835,-0.24617869
189,1.8900000000000015,0.53100663,0.39423034,-0.21751268,-0.8959866,3.1181617,-0.26251933
190,1.9000000000000015,0.49429715,0.36630186,-0.18586451,-0.93966347,3.584099,-0.31963524
191,1.9100000000000015,0.47795472,0.354106,-0.15567982,-1.0123564,3.675118,-0.34865135
192,1.9200000000000015,0.32965338,0.33965397,0.014574022,-1.1901182,3.7276525,-0.4098906
193,1.9300000000000015,0.32965338,0.33965397,0.014574022,-1.5939001,3.712839,-0.45158213
194,1.9400000000000015,0.2125734,0.23452587,0.13799585,-2.0861049,3.010344,-0.4175264
195,1.9500000000000015,0.16525355,0.23916028,0.14086188,-2.0861049,3.010344,-0.4175264
196,1.9600000000000015,0.13122717,0.25690526,0.12079973,-2.4474316,2.5056164,-0.18524489
197,1.9700000000000015,0.16903426,0.2174517,0.06756492,-2.5833492,2.520888,-0.0125227375
198,1.9800000000000015,0.1999507,0.1835473,0.063418336,-2.5833492,2.520888,-0.0125227375
199,1.9900000000000015,0.1999507,0.1835473,0.063418336,-2.7145324,2.650697,0.062002823
200,2.0000000000000013,0.15970443,0.15208204,0.35971612,-2.8296804,3.7936258,0.014966198
201,2.010000000000001,0.054820273,0.19299906,0.6904671,-2.4036021,4.512767,-0.035430185
202,2.020000000000001,-0.048234522,0.21232945,0.70235807,-2.1222985,4.7111454,-0.011301007
203,2.0300000000000007,-0.08921252,0.14952092,0.64619625,-2.1222985,4.7111454,-0.011301007
204,2.0400000000000005,-0.14324006,0.06518673,0.58820504,-2.3614523,4.3557744,0.07192938
205,2.0500000000000003,-0.16269243,0.031343292,0.5538738,-2.5537221,4.033543,0.057268616
206,2.06,-0.30837163,0.015671646,0.5072857,-3.0376801,3.4200819,0.050701816
207,2.07,-0.44496498,0.03872177,0.5071027,-3.337615,3.431841,0.21868975
208,2.0799999999999996,-0.5592399,0.05719846,0.56417924,-3.6131153,3.602883,0.57971114
209,2.0899999999999994,-0.72028595,0.05353971,0.6366835,-3.9223657,4.024075,1.1644619
210,2.099999999999999,-0.9726787,-0.015061854,1.0151201,-4.419152,5.3490415,2.694832
211,2.109999999999999,-0.9726787,-0.015061854,1.0151201,-4.419152,5.3490415,2.694832
212,2.1199999999999988,-0.8786488,-0.14317909,1.2948927,-4.533842,6.0584087,3.3542612
213,2.1299999999999986,-0.74047005,-0.27257687,1.5478952,-4.459011,6.362009,3.557832
214,2.1399999999999983,-0.3325804,-0.4502092,2.0594494,-3.6355646,6.290843,3.1925344
215,2.149999999999998,-0.3325804,-0.4502092,2.0594494,-3.6355646,6.290843,3.1925344
216,2.159999999999998,-0.04170975,-0.42953727,2.0090199,-0.36102137,5.0375004,1.0395399
217,2.1699999999999977,-0.15555786,-0.41508517,1.7304059,0.6026186,4.755433,0.23075435
218,2.1799999999999975,-0.44380638,-0.31190842,1.4923432,1.3558154,4.812855,-0.42287147
219,2.1899999999999973,-0.44380638,-0.31190842,1.4923432,1.6739235,4.9684725,-0.5731443
220,2.199999999999997,-0.7969977,-0.118604474,1.205741,2.0027218,5.3879843,-0.57650405
221,2.209999999999997,-0.8826125,-0.047868647,1.0934175,1.8718438,5.627749,-0.51343226
222,2.2199999999999966,-0.8826125,-0.047868647,1.0934175,1.8718438,5.627749,-0.51343226
223,2.2299999999999964,-0.89560103,0.0078053335,0.9970704,0.960891,5.4194436,-0.5109888
224,2.239999999999996,-0.9002964,0.048051585,0.9512141,0.960891,5.4194436,-0.5109888
225,2.249999999999996,-0.9002964,0.048051585,0.9512141,0.960891,5.4194436,-0.5109888
226,2.259999999999996,-0.97755706,0.009085896,1.100552,-1.0025826,4.0080395,-0.5849035
227,2.2699999999999956,-0.97755706,0.009085896,1.100552,-1.4101825,3.6247218,-0.552833
228,2.2799999999999954,-0.97755706,0.009085896,1.100552,-1.6152804,3.4684927,-0.46043968
229,2.289999999999995,-1.1701293,-0.030489584,1.4280102,-1.653154,3.4552066,-0.268628
230,2.299999999999995,-1.1701293,-0.030489584,1.4280102,-1.474476,3.6402986,0.035430185
231,2.3099999999999947,-1.0592082,-0.024391668,1.589361,-0.87964594,4.0063596,0.17440203
232,2.3199999999999945,-0.93798155,-0.017257104,1.6032033,-0.4195117,3.9493966,0.11636983
233,2.3299999999999943,-0.93798155,-0.017257104,1.6032033,-0.4195117,3.9493966,0.11636983
234,2.339999999999994,-0.8369391,-0.03457519,1.4991119,0.33261612,3.3360877,-0.10751228
235,2.349999999999994,-0.8369391,-0.03457519,1.4991119,0.5699373,2.823572,-0.22510384
236,2.3599999999999937,-0.7732159,-0.07366284,1.188362,0.5830709,2.485458,-0.3471242
237,2.3699999999999934,-0.7732159,-0.07366284,1.188362,0.31245756,2.0952678,-0.49281552
238,2.3799999999999932,-0.83029234,-0.08274873,1.0495124,0.31245756,2.0952678,-0.49281552
239,2.389999999999993,-0.88011235,-0.08043153,0.95883644,-0.07574729,1.5815301,-0.45646906
240,2.399999999999993,-0.8496228,-0.075980045,0.93133485,-0.23472497,1.3303118,-0.3830125
241,2.4099999999999926,-0.79791236,-0.06299148,0.9160901,-0.27580565,1.2507466,-0.37812558
242,2.4199999999999924,-0.7923633,-0.05189327,0.88919824,-0.24388795,1.2680036,-0.4195117
243,2.429999999999992,-0.8126084,-0.045734376,0.8621235,-0.2049453,1.3451253,-0.47586402
244,2.439999999999992,-0.84883,-0.008110229,0.8091326,-0.20937407,1.4792101,-0.51923543
245,2.4499999999999917,-0.8623674,0.029696856,0.77150846,-0.25870144,1.5228871,-0.5186246
246,2.4599999999999915,-1.0081686,0.08116327,0.69680893,-0.82909685,1.5170839,-0.3717115
247,2.4699999999999913,-1.0384142,0.059759583,0.76547146,-1.2950343,1.3888022,-0.1330159
248,2.479999999999991,-1.0384142,0.059759583,0.76547146,-1.2950343,1.3888022,-0.1330159
249,2.489999999999991,-0.8487081,0.006097917,1.1369566,-1.8958203,0.9998337,0.26358834
250,2.4999999999999907,-0.78309447,-0.025672229,1.2700741,-1.830305,0.9063713,0.28512135
251,2.5099999999999905,-0.64326924,-0.10915271,1.4245343,-1.1601858,0.48075095,0.18952094
252,2.5199999999999902,-0.6285733,-0.10207913,1.463561,-0.47876564,0.43478334,-0.009010263
253,2.52999999999999,-0.64436686,-0.05390558,1.3326998,0.080634214,0.42103887,-0.11804971
254,2.53999999999999,-0.6590018,-0.03963646,1.2529389,0.8691085,0.24510968,-0.25045475
255,2.5499999999999896,-0.72144455,-0.02134271,1.1458596,1.091158,0.109650314,-0.33169982
256,2.5599999999999894,-0.7573003,-0.01695221,1.0718309,1.2169963,-0.13973543,-0.3727805
257,2.569999999999989,-0.8037664,-0.006768687,0.9820695,1.2169963,-0.13973543,-0.3727805
258,2.579999999999989,-0.8526717,-0.0010366458,0.8977353,1.1439979,-0.5491679,-0.34345898
259,2.5899999999999888,-0.8832832,0.016708292,0.8762097,0.9071349,-0.68477994,-0.30024028
260,2.5999999999999885,-0.948348,0.061162103,0.8750511,0.6356053,-0.80848014,-0.19501872
261,2.6099999999999883,-0.989387,0.06451596,0.9340179,0.25717425,-1.0082331,0.028405234
262,2.619999999999988,-0.9885943,0.055186145,1.056952,0.00992656,-1.1852313,0.22953261
263,2.629999999999988,-0.95036036,0.02841629,1.1487865,-0.13530666,-1.3848315,0.4092797
264,2.6399999999999877,-0.8946254,-0.026099084,1.2158027,-0.21273382,-1.5914567,0.5111415
265,2.6499999999999875,-0.8480373,-0.07030898,1.3098935,-0.2312125,-1.7574593,0.53985214
266,2.6599999999999873,-0.85084236,-0.08366342,1.4060577,-0.12599096,-1.9057468,0.5337435
267,2.669999999999987,-0.84370774,-0.07091877,1.4146557,0.007788532,-2.2149973,0.49189925
268,2.679999999999987,-0.8959669,-0.059027832,1.4174608,0.018784106,-2.4956899,0.4343252
269,2.6899999999999866,-0.95676315,-0.06628435,1.4125824,-0.049480084,-2.8257098,0.40103304
270,2.6999999999999864,-1.0762823,-0.061649937,1.4152045,-0.21365012,-3.2991304,0.39584067
271,2.709999999999986,-1.0762823,-0.061649937,1.4152045,-0.42745295,-3.7033706,0.41325033
272,2.719999999999986,-1.0762823,-0.061649937,1.4152045,-0.6282749,-4.2013783,0.41157046
273,2.7299999999999858,-1.0614643,-0.08720021,1.4614878,-0.57635134,-3.954436,0.4280638
274,2.7399999999999856,-0.90486985,-0.1934869,1.6090573,-0.25870144,-4.4898596,0.24022275
275,2.7499999999999853,-0.90486985,-0.1934869,1.6090573,-0.027641652,-4.5141416,0.12186762
276,2.759999999999985,-0.875234,-0.19830425,1.5724088,0.6047566,-4.4521384,-0.2218968
277,2.769999999999985,-0.94517714,-0.17641273,1.5373458,0.9605856,-4.407393,-0.37400225
278,2.7799999999999847,-1.0222547,-0.16342416,1.4856964,1.2513574,-4.3898306,-0.46395215
279,2.7899999999999845,-1.0992714,-0.14720371,1.3741045,1.4979943,-4.4322853,-0.4915938
280,2.7999999999999843,-1.1288464,-0.12701961,1.3510544,1.5476271,-4.38418,-0.43279803
281,2.809999999999984,-1.1279317,-0.08805392,1.3297118,1.6308575,-4.2357397,-0.21624629
282,2.819999999999984,-1.0677452,-0.08793196,1.2591588,1.6016886,-4.212527,-0.07467828
283,2.8299999999999836,-1.0677452,-0.08793196,1.2591588,1.4454598,-4.224286,0.046731193
284,2.8399999999999834,-0.968898,-0.10348164,1.2301328,1.0439687,-4.3365326,0.14630222
285,2.849999999999983,-0.9457259,-0.10665256,1.2552562,0.9718866,-4.372268,0.15332718
286,2.859999999999983,-0.8728558,-0.12189735,1.3867882,0.66339964,-4.851492,0.11652254
287,2.869999999999983,-0.84224427,-0.1425693,1.4102652,0.7118107,-5.179679,0.02397646
288,2.8799999999999826,-0.76559347,-0.15817997,1.4024599,0.83658,-5.242598,-0.054367006
289,2.8899999999999824,-0.7285791,-0.15372847,1.355506,1.3428345,-5.015051,-0.21731532
290,2.899999999999982,-0.7285791,-0.15372847,1.355506,1.3428345,-5.015051,-0.21731532
291,2.909999999999982,-0.7627884,-0.13836174,1.3554449,1.623527,-4.6630397,-0.27580565
292,2.9199999999999817,-0.7627884,-0.13836174,1.3554449,1.623527,-4.6630397,-0.27580565
293,2.9299999999999815,-0.76748383,-0.14366692,1.3891054,1.779756,-4.689918,-0.14737125
294,2.9399999999999813,-0.7219933,-0.17988855,1.3953862,1.8145752,-4.786129,-0.11866058
295,2.949999999999981,-0.59997404,-0.20970736,1.4456941,2.0842721,-4.9480085,-0.14569137
296,2.959999999999981,-0.5670453,-0.201963,1.36697,2.4113905,-4.9118147,-0.21227567
297,2.9699999999999807,-0.5551544,-0.19641389,1.2408041,2.4113905,-4.9118147,-0.21227567
298,2.9799999999999804,-0.6008887,-0.16007032,1.1165895,2.5696046,-5.10607,-0.20066923
299,2.9899999999999802,-0.6050963,-0.13360536,1.0295113,2.516154,-5.2076263,-0.13209961
300,2.99999999999998,-0.5160667,-0.11756783,0.83675617,2.3130412,-5.6408825,-0.025198191
301,3.00999999999998,-0.465393,-0.11726294,0.6905281,2.1760547,-5.998086,-0.008552114
302,3.0199999999999796,-0.465393,-0.11726294,0.6905281,2.1760547,-5.998086,-0.008552114
303,3.0299999999999794,-0.36313096,-0.066345334,0.42587852,1.754405,-6.5269423,-0.108123146
304,3.039999999999979,-0.35252056,-0.034636166,0.41435343,1.6992744,-6.498079,-0.13683382
305,3.049999999999979,-0.29690757,0.030550564,0.4238662,1.5787812,-5.7665677,-0.1956296
306,3.0599999999999787,-0.19275515,0.12610492,0.5265551,1.7654005,-5.0513973,-0.15821409
307,3.0699999999999785,-0.16147284,0.16580236,0.54637337,2.0828977,-4.8123965,-0.09605856
308,3.0799999999999783,-0.16147284,0.16580236,0.54637337,2.272877,-4.846605,-0.06169739
309,3.089999999999978,-0.14403279,0.056039855,0.17458336,2.4326181,-5.533981,-0.08597928
310,3.099999999999978,-0.06421106,0.021220751,-0.03957548,2.3759604,-5.7822976,-0.12812899
311,3.1099999999999777,-0.06421106,0.021220751,-0.03957548,2.3759604,-5.7822976,-0.12812899
312,3.1199999999999775,0.04664906,-0.022440333,-0.18409611,2.460107,-5.776189,-0.48243082
313,3.1299999999999772,0.12598296,-0.07634591,-0.28641915,2.460107,-5.776189,-0.48243082
314,3.139999999999977,0.16799761,-0.060125455,-0.45679495,3.1638238,-4.969389,-0.9963212
315,3.149999999999977,0.117933705,-0.06219875,-0.86364794,3.486208,-4.502688,-1.2359331
316,3.1599999999999766,0.0690894,-0.046953958,-1.1615921,3.486208,-4.502688,-1.2359331
317,3.1699999999999764,0.00073175,-0.014391083,-1.5125883,2.9985847,-3.8116465,-1.5036448
318,3.179999999999976,-0.033172667,0.002866021,-1.6924769,2.7479773,-3.7119226,-1.5033394
319,3.189999999999976,-0.033172667,0.002866021,-1.6924769,1.7423404,-3.3945782,-1.3176364
320,3.1999999999999758,-0.033172667,0.002866021,-1.6924769,1.7423404,-3.3945782,-1.3176364
321,3.2099999999999755,-0.033172667,0.002866021,-1.6924769,1.7423404,-3.3945782,-1.3176364
322,3.2199999999999753,0.19153556,0.18921836,-2.0565224,-0.40683624,-0.7528914,-0.2666427
323,3.229999999999975,0.23135497,0.19031598,-1.943589,-0.5519168,-0.2764165,-0.17898351
324,3.239999999999975,0.23135497,0.19031598,-1.943589,-0.829555,0.9647089,-0.010995574
325,3.2499999999999747,0.29270002,0.24275808,-1.522101,-0.8935431,1.3012956,0.02275473
326,3.2599999999999745,0.31422567,0.27123535,-1.1981796,-1.0086912,2.1636846,0.16035213
327,3.2699999999999743,0.35727695,0.31312802,-0.99017966,-1.0424415,2.5004241,0.2591596
328,3.279999999999974,0.4004502,0.35124,-0.8966377,-1.1404854,2.741716,0.35903606
329,3.289999999999974,0.49923643,0.3773391,-0.6951625,-1.5221235,2.8177686,0.5740606
330,3.2999999999999736,0.54399514,0.37422916,-0.5367996,-1.5676329,2.6868908,0.58291817
331,3.3099999999999734,0.6377811,0.28867537,-0.3574599,-1.557401,2.5074492,0.52366424
332,3.319999999999973,0.6377811,0.28867537,-0.3574599,-1.557401,2.5074492,0.52366424
333,3.329999999999973,0.6647339,0.2610518,-0.35489875,-1.4964671,2.3269384,0.39767328
334,3.3399999999999728,0.66723406,0.21306121,-0.43173254,-1.3292428,2.046704,0.020616703
335,3.3499999999999726,0.6320491,0.31550622,-0.48600397,-1.1140655,2.2293527,-0.3323107
336,3.3599999999999723,0.5683259,0.39642558,-0.49685827,-1.0746647,2.584571,-0.43264532
337,3.369999999999972,0.47716197,0.45118487,-0.43124464,-1.0746647,2.584571,-0.43264532
338,3.379999999999972,0.47716197,0.45118487,-0.43124464,-1.0841331,2.993545,-0.38545597
339,3.3899999999999717,0.38855925,0.47380814,-0.20580468,-1.1029172,3.4784193,-0.12705997
340,3.3999999999999715,0.3927668,0.37770495,-0.07884607,-1.1476631,3.3428073,-0.039858956
341,3.4099999999999713,0.45295325,0.30117613,-0.056344748,-1.1333077,3.092658,-0.06811147
342,3.419999999999971,0.54497087,0.2508683,-0.11421398,-1.154688,2.8565586,-0.30100384
343,3.429999999999971,0.5646671,0.23568448,-0.17525412,-1.3542882,2.8083003,-0.66905016
344,3.4399999999999706,0.52917725,0.23202574,-0.1838522,-1.4883732,2.8328876,-0.8081747
345,3.4499999999999704,0.031343292,0.36782634,0.09750569,-1.9689714,3.033404,-0.9857838
346,3.45999999999997,0.031343292,0.36782634,0.09750569,-2.066099,3.2565227,-0.8037459
347,3.46999999999997,-0.036282603,0.4054505,0.26153967,-2.066099,3.2565227,-0.8037459
348,3.47999999999997,-0.0020732917,0.37581462,0.3670336,-1.6027577,3.9173262,-0.04505131
349,3.4899999999999696,0.15031365,0.22501312,0.18183987,-1.347416,4.3913574,0.06582073
350,3.4999999999999694,0.16080207,0.16811956,0.1884866,-1.6372715,4.55904,-0.029626964
351,3.509999999999969,0.10994543,0.14952092,0.2642227,-1.6372715,4.55904,-0.029626964
352,3.519999999999969,0.0006707709,0.07573613,0.4165487,-2.0328069,4.6454773,-0.14385876
353,3.5299999999999687,-0.088968605,0.021525647,0.5454587,-2.9039006,4.466494,-0.30390546
354,3.5399999999999685,-0.2789187,-0.004024625,0.846025,-3.1951306,3.9434407,-0.3023783
355,3.5499999999999683,-0.29916382,0.005854,1.0629889,-3.0155363,3.7578902,-0.205098
356,3.559999999999968,-0.18501079,0.029513916,1.086283,-2.595261,3.6813793,-0.11652254
357,3.569999999999968,-0.05067369,0.08720021,0.8773683,-2.595261,3.6813793,-0.11652254
358,3.5799999999999677,-0.020367041,0.084578104,0.7695571,-2.075262,3.9860485,-0.19028452
359,3.5899999999999674,-0.07518731,-0.010183521,0.65028185,-2.6198483,4.787962,-0.30100384
360,3.5999999999999672,-0.16732684,-0.099457026,0.8029737,-2.9739974,5.043151,-0.38866302
361,3.609999999999967,-0.23019636,-0.13665432,1.0240232,-3.115871,5.1239376,-0.52687126
362,3.619999999999967,-0.254588,-0.19226731,1.2081803,-2.9778154,4.925559,-0.6450737
363,3.6299999999999666,-0.32989728,-0.21354906,1.2466581,-2.6897924,4.5194864,-0.7603745
364,3.6399999999999664,-0.4024625,-0.23184279,1.1536039,-2.3574817,3.8892262,-0.8388707
365,3.649999999999966,-0.72284704,-0.19549921,0.9457259,-2.2661574,3.5187366,-0.8697194
366,3.659999999999966,-0.84980565,-0.16720487,1.0532932,-2.474615,3.6395352,-0.795652
367,3.6699999999999657,-0.84980565,-0.16720487,1.0532932,-2.7327056,4.21329,-0.55741453
368,3.6799999999999655,-0.84980565,-0.16720487,1.0532932,-2.7327056,4.21329,-0.55741453
369,3.6899999999999653,-0.84980565,-0.16720487,1.0532932,-2.7440066,4.5857654,-0.37186423
370,3.699999999999965,-0.98956996,-0.09384694,1.5431999,-2.349846,5.334839,0.15347989
371,3.709999999999965,-0.94907975,-0.10689648,1.4950262,-1.8564194,5.012455,0.4185954
372,3.7199999999999647,-0.94907975,-0.10689648,1.4950262,-1.8564194,5.012455,0.4185954
373,3.7299999999999645,-0.92688334,-0.12500729,1.4320958,-1.9909625,3.9535198,0.49541172
374,3.7399999999999642,-0.9559704,-0.18537667,1.3511764,-2.042428,3.787212,0.5190827
375,3.749999999999964,-1.0015829,-0.2040363,1.3908739,-2.0511327,3.571271,0.62018096
376,3.759999999999964,-1.0518296,-0.19104773,1.4389864,-1.8843665,3.6346483,0.712727
377,3.7699999999999636,-1.0664037,-0.18513274,1.4763057,-1.6415477,3.8171442,0.8382598
378,3.7799999999999634,-1.0687819,-0.16019227,1.5061854,-1.3069462,4.130671,1.0225884
379,3.789999999999963,-1.0105468,-0.17000991,1.5356385,-0.97402465,4.3369904,1.20371
380,3.799999999999963,-0.9603609,-0.20275573,1.560396,-0.7118107,4.3056836,1.2470814
381,3.8099999999999627,-0.9077969,-0.24245316,1.5409436,-0.4288274,4.06317,1.142318
382,3.8199999999999625,-0.81846243,-0.27471116,1.4983801,-0.24938573,3.7772853,0.9976957
383,3.8299999999999623,-0.7485803,-0.28032124,1.4343519,-0.03481932,3.451236,0.77289724
384,3.839999999999962,-0.68339354,-0.23757485,1.276111,0.10369437,3.2614095,0.57879484
385,3.849999999999962,-0.68339354,-0.23757485,1.276111,0.19593503,3.1125112,0.30100384
386,3.8599999999999617,-0.68607664,-0.19147459,1.220925,0.18051068,3.0376801,0.09208794
387,3.8699999999999615,-0.76230055,-0.1302515,1.150677,0.09285152,2.9501736,-0.08307768
388,3.8799999999999613,-0.810718,-0.118360564,1.1651899,-0.2658791,2.7377453,-0.2507602
389,3.889999999999961,-0.8332194,-0.13452004,1.1822032,-0.2658791,2.7377453,-0.2507602
390,3.899999999999961,-0.77492326,-0.14037405,1.205741,-0.8863655,1.977218,-0.18677205
391,3.9099999999999606,-0.77492326,-0.14037405,1.205741,-0.8863655,1.977218,-0.18677205
392,3.9199999999999604,-0.5674721,-0.16226557,1.2884898,-1.3232869,1.2162327,-0.30375275
393,3.92999999999996,-0.55576414,-0.17629078,1.2912339,-1.4144585,1.0201449,-0.39538252
394,3.93999999999996,-0.62570727,-0.14098383,1.3441639,-1.4144585,1.0201449,-0.39538252
395,3.9499999999999598,-0.67979574,-0.12964171,1.3395904,-1.6352862,0.03481932,-0.45631635
396,3.9599999999999596,-0.78425306,-0.18129106,1.3811172,-1.6484199,-0.40576723,-0.39706242
397,3.9699999999999593,-0.71876144,-0.20281671,1.381544,-1.40667,-0.8361218,-0.34116822
398,3.979999999999959,-0.6510136,-0.184401,1.3703239,-1.1027645,-0.990518,-0.36560285
399,3.989999999999959,-0.48947978,-0.1027499,1.3002588,-0.19746219,-1.0157162,-0.5554292
400,3.9999999999999587,-0.50021213,-0.08744413,1.2414749,0.5158757,-0.86620694,-0.80481493
401,4.009999999999959,-0.6186946,-0.07939488,1.0891489,1.3771957,-0.49510628,-1.1177307
402,4.019999999999959,-0.69558936,-0.07049192,0.9732275,2.030058,-0.017715093,-1.2991576
403,4.0299999999999585,-0.76614225,0.055978876,0.5899125,2.2000313,0.1872302,-1.3074044
404,4.039999999999958,-0.76614225,0.055978876,0.5899125,2.1751385,0.7620544,-1.1669053
405,4.049999999999958,-0.87877077,0.08610259,0.62399983,1.6333009,1.1058189,-0.9062186
406,4.059999999999958,-0.91572416,0.10049367,0.7579101,1.114371,1.1601858,-0.65270954
407,4.069999999999958,-0.91572416,0.10049367,0.7579101,0.55665094,0.95096445,-0.3129157
408,4.079999999999957,-0.90115017,0.08030956,0.81876725,0.2790127,0.7469355,-0.12660182
409,4.089999999999957,-0.8473665,0.026221042,0.8837711,-0.1797471,0.28313604,0.17211129
410,4.099999999999957,-0.7984612,-0.014695979,0.9437745,-0.40103304,-0.037873644,0.29810223
411,4.109999999999957,-0.7573003,-0.091529734,1.0693917,-0.46517387,-0.5458081,0.41233405
412,4.119999999999957,-0.7324818,-0.117140986,1.0850632,-0.46517387,-0.5458081,0.41233405
413,4.129999999999956,-0.7176638,-0.1393374,1.1268951,-0.12156218,-0.63529986,0.42943826
414,4.139999999999956,-0.676198,-0.15757017,1.1353102,0.09025534,-0.6363689,0.4344779
415,4.149999999999956,-0.676198,-0.15757017,1.1353102,0.09025534,-0.6363689,0.4344779
416,4.159999999999956,-0.676198,-0.15757017,1.1353102,0.4269948,-0.573297,0.3764457
417,4.1699999999999555,-0.6313173,-0.15196009,1.1327491,0.30466905,-0.6068946,0.4063781
418,4.179999999999955,-0.7097975,-0.13165402,1.2170222,0.44913867,-0.75609845,0.40424007
419,4.189999999999955,-0.7104073,-0.12628786,1.2291571,0.3481932,-0.8727737,0.43096542
420,4.199999999999955,-0.73101825,-0.13689823,1.296783,0.019547688,-1.1786644,0.46685377
421,4.209999999999955,-0.7383357,-0.15525296,1.3573962,-0.35430184,-1.6094772,0.4466952
422,4.2199999999999545,-0.7666301,-0.16141187,1.4619147,-0.44730607,-1.7858646,0.441961
423,4.229999999999954,-0.75431234,-0.17763232,1.5607008,-0.5141958,-2.3269384,0.4437936
424,4.239999999999954,-0.7864483,-0.19226731,1.615643,-0.376293,-2.8948903,0.45066583
425,4.249999999999954,-0.7622396,-0.21312219,1.5922271,0.19242255,-3.4530685,0.26939157
426,4.259999999999954,-0.76321524,-0.21232945,1.545456,0.19242255,-3.4530685,0.26939157
427,4.269999999999953,-0.7819359,-0.2139759,1.5116736,0.36957347,-3.4959817,0.19853121
428,4.279999999999953,-0.77181333,-0.20159712,1.4165461,0.7890852,-3.4374914,0.04550946
429,4.289999999999953,-0.7649227,-0.21464668,1.4236196,0.89659745,-3.3733506,0.009162978
430,4.299999999999953,-0.7106512,-0.20793895,1.4484382,1.0474812,-3.3469307,-0.05971208
431,4.3099999999999525,-0.7106512,-0.20793895,1.4484382,1.0474812,-3.3469307,-0.05971208
432,4.319999999999952,-0.7302255,-0.2045851,1.4520969,1.2040154,-3.4046574,-0.15515977
433,4.329999999999952,-0.8271825,-0.16988796,1.3790439,1.415222,-3.5865426,-0.2228131
434,4.339999999999952,-0.8994427,-0.15293576,1.3308704,1.4031575,-3.8049269,-0.16203201
435,4.349999999999952,-0.9368229,-0.109884456,1.2944047,1.368949,-3.8843393,-0.07742717
436,4.3599999999999515,-0.9327983,-0.09537142,1.267452,1.3038919,-3.834554,0.06994407
437,4.369999999999951,-0.8631601,-0.09488358,1.2788551,1.2383766,-3.690695,0.21456642
438,4.379999999999951,-0.81480366,-0.093481064,1.3129424,1.2240212,-3.6234999,0.25457808
439,4.389999999999951,-0.790351,-0.12744646,1.4744153,1.2464706,-3.3731978,0.29764408
440,4.399999999999951,-0.79559517,-0.14433768,1.5208814,1.2771665,-3.3814445,0.29428434
441,4.40999999999995,-0.82071865,-0.18086421,1.5741773,1.3588698,-3.7496436,0.21670444
442,4.41999999999995,-0.8223651,-0.18830366,1.5489318,1.3411547,-3.9915462,0.1956296
443,4.42999999999995,-0.8123645,-0.20501198,1.4805132,1.2512047,-4.3838744,0.18448131
444,4.43999999999995,-0.8296825,-0.19745055,1.4509993,1.144456,-4.8812714,0.21517728
445,4.4499999999999496,-0.7735207,-0.17476629,1.431303,1.2675453,-4.9903107,0.26160303
446,4.459999999999949,-0.6020473,-0.16653411,1.3842272,1.6436857,-4.6268463,0.19394971
447,4.469999999999949,-0.6020473,-0.16653411,1.3842272,1.6436857,-4.6268463,0.19394971
448,4.479999999999949,-0.6306466,-0.140496,1.3514203,1.9604193,-4.358829,0.14721853
449,4.489999999999949,-0.7029069,-0.12628786,1.3587989,2.0453296,-4.4252605,0.17486018
450,4.4999999999999485,-0.79833925,-0.109762505,1.3830075,2.104278,-4.511545,0.24785857
451,4.509999999999948,-0.8156574,-0.08512692,1.3469689,2.104278,-4.511545,0.24785857
452,4.519999999999948,-0.8156574,-0.08512692,1.3469689,2.231338,-4.80079,0.4810564
453,4.529999999999948,-0.6047304,-0.08829784,1.1663485,2.4124596,-5.2387805,0.6601926
454,4.539999999999948,-0.53838503,-0.057625312,1.0084125,2.3913846,-5.3281193,0.6188065
455,4.549999999999947,-0.53838503,-0.057625312,1.0084125,2.3913846,-5.3281193,0.6188065
456,4.559999999999947,-0.53838503,-0.057625312,1.0084125,2.3913846,-5.3281193,0.6188065
457,4.569999999999947,-0.468381,-0.040734082,0.84992766,2.3913846,-5.3281193,0.6188065
458,4.579999999999947,-0.3228847,-0.09781059,1.0114005,1.5911512,-6.3613977,0.34513888
459,4.589999999999947,-0.36154547,-0.1753151,1.0724406,2.6038132,-7.382154,-0.11652254
460,4.599999999999946,-0.41234115,-0.28019926,0.9962167,2.6038132,-7.382154,-0.11652254
461,4.609999999999946,-0.47033232,-0.301481,0.7102853,3.5081992,-7.6600976,-0.4363105
462,4.619999999999946,-0.3403857,-0.21074401,-0.15616766,3.9984186,-7.67934,-0.6618725
463,4.629999999999946,-0.23202574,-0.08823685,-0.55009305,4.483598,-6.4505844,-1.2363913
464,4.6399999999999455,-0.23202574,-0.08823685,-0.55009305,4.483598,-6.4505844,-1.2363913
465,4.649999999999945,-0.316116,0.26092985,-1.0854292,2.9895744,-4.553695,-0.6750061
466,4.659999999999945,-0.316116,0.26092985,-1.0854292,2.9895744,-4.553695,-0.6750061
467,4.669999999999945,-0.3907545,0.29385862,-1.147506,1.2789991,-4.5216246,0.22311853
468,4.679999999999945,-0.3907545,0.29385862,-1.147506,1.2789991,-4.5216246,0.22311853
469,4.689999999999944,-0.023416,0.06793079,-1.1926916,-0.33857206,-5.3986745,0.8330675
470,4.699999999999944,0.18964522,-0.030672522,-1.1878742,-0.4793765,-5.4669385,0.7076874
471,4.709999999999944,0.40856043,-0.07329696,-1.2139122,-0.4793765,-5.4669385,0.7076874
472,4.719999999999944,0.39233997,-0.038965687,-1.2705619,0.18570304,-4.362494,-0.5038111
473,4.729999999999944,0.31892106,-0.031831127,-1.3430052,0.6238461,-3.741397,-0.8523097
474,4.739999999999943,0.29465136,0.012073875,-1.4290468,1.3859005,-2.4933991,-1.2452488
475,4.749999999999943,0.29465136,0.012073875,-1.4290468,1.3859005,-2.4933991,-1.2452488
476,4.759999999999943,0.29465136,0.012073875,-1.4290468,1.3859005,-2.4933991,-1.2452488
477,4.769999999999943,0.34819105,0.27166218,-1.7294911,1.7217237,1.6242907,-1.4094188
478,4.7799999999999425,0.3264215,0.30392018,-1.6643045,1.5086844,1.9917262,-1.2983941
479,4.789999999999942,0.25562465,0.36526522,-1.393374,0.50625455,2.617252,-0.7874053
480,4.799999999999942,0.33916613,0.40106,-1.1868376,-0.20051652,2.6390905,-0.41263947
481,4.809999999999942,0.46155134,0.4106947,-1.0000583,-0.91415983,2.4933991,-0.0936151
482,4.819999999999942,0.60070574,0.35636225,-0.7392504,-1.7345519,2.1175644,0.111941054
483,4.8299999999999415,0.6313783,0.27129632,-0.2895291,-2.317928,1.1814134,0.13775012
484,4.839999999999941,0.6231461,0.27934557,-0.19763349,-1.9908098,0.895223,0.095753126
485,4.849999999999941,0.6231461,0.27934557,-0.19763349,-1.9908098,0.895223,0.095753126
486,4.859999999999941,0.67656386,0.30422506,-0.29337075,-1.5519031,1.0358747,0.05024367
487,4.869999999999941,0.70741934,0.31715265,-0.5656428,-1.0613784,1.3903292,-0.089949906
488,4.87999999999994,0.70741934,0.31715265,-0.5656428,-0.8706357,1.6818647,-0.20372356
489,4.88999999999994,0.5813754,0.4200855,-0.5959494,-0.68691796,2.8554895,-0.47907108
490,4.89999999999994,0.47801572,0.4121582,-0.4428917,-0.77854776,3.2846224,-0.45570546
491,4.90999999999994,0.4484408,0.3621553,-0.32709226,-0.84467393,3.257439,-0.42302418
492,4.9199999999999395,0.45319718,0.3383734,-0.30190787,-0.89369583,3.128852,-0.46196684
493,4.929999999999939,0.5305188,0.23806266,-0.2706865,-1.055117,2.762638,-0.6412558
494,4.939999999999939,0.5919248,0.18525472,-0.28885832,-1.1924089,2.4819455,-0.8868236
495,4.949999999999939,0.5919248,0.18525472,-0.28885832,-1.4214834,2.2942572,-1.2594514
496,4.959999999999939,0.30392018,0.27123535,-0.29623678,-1.6543758,2.4194846,-1.413084
497,4.9699999999999385,0.21470766,0.34995946,-0.1952553,-1.6543758,2.4194846,-1.413084
498,4.979999999999938,0.15317966,0.500517,-0.07689473,-1.5816828,3.288593,-0.9390526
499,4.989999999999938,0.09781059,0.5499101,-0.076102,-1.4993688,4.0819545,-0.5479461
500,4.999999999999938,0.030855458,0.46490517,-0.0070126047,-1.5787812,4.5872927,-0.20311269
501,5.009999999999938,0.043600105,0.40612125,0.019147458,-1.7458528,4.7429104,0.07544186
502,5.019999999999937,0.042380523,0.34617874,0.028660208,-2.0896173,4.725043,0.23472497
503,5.029999999999937,0.14763056,0.09409086,0.23556253,-3.4002287,4.2687263,0.19043724
504,5.039999999999937,0.17964463,0.024635585,0.39069352,-3.7873645,3.7717874,0.015118915
505,5.049999999999937,0.18995011,-0.04183171,0.62357295,-3.7873645,3.7717874,0.015118915
506,5.0599999999999365,0.18995011,-0.04183171,0.62357295,-3.866166,3.4914002,-0.1873829
507,5.069999999999936,0.06305246,-0.053234816,0.7984003,-3.6899316,3.3774738,-0.4266894
508,5.079999999999936,-0.12659276,-0.009451771,0.9713981,-3.0865493,3.573867,-0.5852089
509,5.089999999999936,-0.12110463,0.23903833,0.95572644,-1.4333953,4.3682976,-0.26847526
510,5.099999999999936,-0.112750486,0.18348631,0.78443605,-1.2518156,4.6014953,-0.20357084
511,5.1099999999999355,-0.112750486,0.18348631,0.78443605,-1.2518156,4.6014953,-0.20357084
512,5.119999999999935,-0.112750486,0.18348631,0.78443605,-1.5790867,4.35608,-0.473726
513,5.129999999999935,-0.031770147,-0.03652652,0.7124196,-1.6888897,4.2404737,-0.6195701
514,5.139999999999935,-0.06896744,-0.062015813,0.7469948,-1.9034561,3.8681514,-1.3545936
515,5.149999999999935,-0.21080498,-0.07616298,0.7052851,-2.1534526,3.745062,-1.8009834
516,5.159999999999934,-0.3621553,-0.097444706,0.73815286,-2.1534526,3.745062,-1.8009834
517,5.169999999999934,-0.66869754,-0.06305246,0.9646295,-2.5862508,4.1766386,-1.869095
518,5.179999999999934,-0.7959611,0.018720604,1.1631166,-2.4851525,4.4119744,-1.660179
519,5.189999999999934,-0.8002906,0.16427788,1.4191072,-1.1942415,5.1601315,-0.72418076
520,5.199999999999934,-0.8002906,0.16427788,1.4191072,-0.923781,5.0352097,-0.537256
521,5.209999999999933,-0.7925463,0.134642,1.2928193,-1.0703887,4.7731485,-0.462425
522,5.219999999999933,-0.8804172,0.07561417,0.99444824,-1.0703887,4.7731485,-0.462425
523,5.229999999999933,-0.8804172,0.07561417,0.99444824,-1.4364496,4.563316,-0.43325618
524,5.239999999999933,-0.910541,-0.109762505,0.9988388,-3.274085,3.348916,-0.066737026
525,5.2499999999999325,-0.910541,-0.109762505,0.9988388,-3.274085,3.348916,-0.066737026
526,5.259999999999932,-0.90456504,-0.16403395,1.2193395,-3.5673003,3.1384728,0.05955936
527,5.269999999999932,-0.90273565,-0.25592956,1.4305104,-3.355941,3.2560644,0.22174409
528,5.279999999999932,-0.9106629,-0.24269708,1.4741714,-2.426204,3.6392298,0.355829
529,5.289999999999932,-0.8995647,-0.23702602,1.3996549,-1.9191859,3.9707768,0.3576616
530,5.299999999999931,-0.9354204,-0.23068418,1.3207477,-1.5624406,4.4454193,0.31505376
531,5.309999999999931,-0.9940214,-0.21800053,1.2771477,-1.4763086,4.7314568,0.28389964
532,5.319999999999931,-1.0384142,-0.22269592,1.2801356,-1.46852,4.8475213,0.28221974
533,5.329999999999931,-1.077319,-0.2403189,1.3311143,-1.3416128,4.704273,0.33628133
534,5.339999999999931,-1.0489637,-0.24147749,1.3714216,-1.3416128,4.704273,0.33628133
535,5.34999999999993,-1.0324383,-0.25513685,1.3371512,-1.2299771,4.5414777,0.31306845
536,5.35999999999993,-1.0033512,-0.27776012,1.2178149,-1.1928672,4.258342,0.20082195
537,5.36999999999993,-0.98987484,-0.24983165,1.2200712,-1.264033,4.206418,0.09407325
538,5.37999999999993,-0.9846916,-0.20824386,1.2600125,-1.2539536,4.2271876,0.019394971
539,5.3899999999999295,-1.0495734,-0.16263144,1.3392245,-1.2539536,4.2271876,0.019394971
540,5.399999999999929,-1.0819534,-0.14988679,1.405021,-1.1119275,4.076609,0.017256944
541,5.409999999999929,-1.0965884,-0.1308613,1.4402059,-1.1119275,4.076609,0.017256944
542,5.419999999999929,-1.0990275,-0.04835648,1.4932579,-1.1160508,3.6080756,0.08277224
543,5.429999999999929,-1.0291454,-0.024025792,1.5049049,-1.1957687,3.1951306,0.21609358
544,5.4399999999999284,-0.8985281,-0.005183229,1.4952092,-1.3608551,2.7354546,0.3368922
545,5.449999999999928,-0.7880338,0.025855167,1.5447242,-1.4772248,2.41979,0.34483343
546,5.459999999999928,-0.7880338,0.025855167,1.5447242,-1.4810427,2.1474967,0.28710666
547,5.469999999999928,-0.71626127,0.014756958,1.7360768,-1.2508993,1.7849482,0.16890424
548,5.479999999999928,-0.7276644,0.013781292,1.7579075,-0.9841039,1.5607607,0.088422745
549,5.489999999999927,-0.72254217,0.00512225,1.6367419,-0.41431937,1.169807,-0.047036625
550,5.499999999999927,-0.7905949,-0.017257104,1.4857575,-0.19807306,0.798859,-0.099265605
551,5.509999999999927,-0.84279305,-0.06085721,1.3673359,-0.19807306,0.798859,-0.099265605
552,5.519999999999927,-0.75882477,-0.061162103,1.2536707,-0.4266894,-0.36453384,-0.116675265
553,5.5299999999999265,-0.708212,-0.0034758127,1.2251934,-0.5279403,-0.94897914,-0.2678644
554,5.539999999999926,-0.708212,-0.0034758127,1.2251934,-0.20540343,-1.6161968,-0.49312097
555,5.549999999999926,-0.76748383,0.010061563,1.1523234,-0.20540343,-1.6161968,-0.49312097
556,5.559999999999926,-0.9054797,0.0024391667,1.0121323,0.35246924,-1.6980526,-0.46471575
557,5.569999999999926,-0.95359224,-0.005366167,0.95279956,0.47067168,-1.6594155,-0.42012256
558,5.5799999999999255,-0.9366401,-0.015427729,0.8205357,0.852157,-1.408808,-0.21563543
559,5.589999999999925,-0.9366401,-0.015427729,0.8205357,0.99021256,-1.2528846,-0.13347405
560,5.599999999999925,-0.9366401,-0.015427729,0.8205357,0.99021256,-1.2528846,-0.13347405
561,5.609999999999925,-0.8072422,-0.058357064,0.5733261,0.8614727,-0.95325524,-0.0926988
562,5.619999999999925,-0.8032176,-0.06372323,0.5656428,0.7506007,-0.8782715,-0.0888809
563,5.629999999999924,-0.7977295,-0.062076796,0.6017424,0.56245416,-0.8061894,-0.07070765
564,5.639999999999924,-0.79894906,-0.079029,0.6360737,0.44089198,-0.7874053,-0.04596761
565,5.649999999999924,-0.79894906,-0.079029,0.6360737,0.44089198,-0.7874053,-0.04596761
566,5.659999999999924,-0.80157113,-0.104152426,0.71967614,0.27687466,-0.6931793,0.020005837
567,5.6699999999999235,-0.80279076,-0.11817763,0.75248295,0.25457808,-0.67011917,0.038026363
568,5.679999999999923,-0.8191332,-0.13000758,0.8825515,0.24755314,-0.63331455,0.13698652
569,5.689999999999923,-0.80218095,-0.110555224,0.983411,0.28909197,-0.6721045,0.21074851
570,5.699999999999923,-0.80218095,-0.110555224,0.983411,0.31658092,-0.76342887,0.23945917
571,5.709999999999923,-0.8266336,-0.06988213,1.115187,0.32498032,-0.8950703,0.23640485
572,5.7199999999999225,-0.8579769,-0.05232013,1.1687268,0.30879238,-1.0160216,0.22831088
573,5.729999999999922,-0.9879235,-0.052381106,1.3969717,0.2499966,-1.8156443,0.43172902
574,5.739999999999922,-0.9879235,-0.052381106,1.3969717,0.2499966,-1.8156443,0.43172902
575,5.749999999999922,-1.0003022,-0.07573613,1.4346569,0.2499966,-1.8156443,0.43172902
576,5.759999999999922,-0.8761487,-0.1349469,1.4302664,0.13209961,-2.7522533,0.6600399
577,5.769999999999921,-0.7565076,-0.15128931,1.4161192,0.0759,-3.486208,0.56596667
578,5.779999999999921,-0.68699133,-0.16604628,1.3989232,0.121256754,-3.6827538,0.38973203
579,5.789999999999921,-0.68699133,-0.16604628,1.3989232,0.121256754,-3.6827538,0.38973203
580,5.799999999999921,-0.6934551,-0.19556019,1.4777082,0.3576616,-3.729485,0.034208454
581,5.809999999999921,-0.6934551,-0.19556019,1.4777082,0.51893,-3.7493382,-0.06383542
582,5.81999999999992,-0.84035397,-0.15391143,1.5200887,0.8529206,-3.7766743,-0.16187929
583,5.82999999999992,-0.8627943,-0.15013072,1.5188081,0.95203346,-3.7614028,-0.16126843
584,5.83999999999992,-0.8472445,-0.122446164,1.4601462,1.2707524,-3.7493382,-0.010079277
585,5.84999999999992,-0.81669396,-0.09756667,1.4075211,1.3901765,-3.7400224,0.08475755
586,5.8599999999999195,-0.8154134,-0.10738432,1.3838003,1.4138476,-3.681074,0.15195273
587,5.869999999999919,-0.81620616,-0.10360361,1.3622746,1.3642148,-3.652058,0.21151209
588,5.879999999999919,-0.8253531,-0.0895784,1.3473958,1.2759448,-3.6671767,0.25259277
589,5.889999999999919,-0.8867591,-0.10781116,1.402094,1.2759448,-3.6671767,0.25259277
590,5.899999999999919,-0.9497505,-0.096651986,1.5060635,0.9309586,-3.3677,0.38744128
591,5.909999999999918,-0.9950581,-0.1012864,1.6543039,1.1673635,-3.1454978,0.95569867
592,5.919999999999918,-1.0359142,-0.15116736,1.8246186,1.1673635,-3.1454978,0.95569867
593,5.929999999999918,-1.0301211,-0.1788519,1.8523031,1.2791518,-3.1323643,1.0908526
594,5.939999999999918,-0.8491959,-0.2637349,1.7898606,1.8121318,-3.4190128,1.4208726
595,5.949999999999918,-0.7019312,-0.31129867,1.5652742,2.125811,-3.9115229,1.3014483
596,5.959999999999917,-0.54466593,-0.33989787,1.1583602,1.7415768,-4.536133,0.7350236
597,5.969999999999917,-0.559118,-0.2856264,1.1044546,1.4462235,-4.9243374,0.42149702
598,5.979999999999917,-0.623634,-0.2116587,1.0298162,1.4462235,-4.9243374,0.42149702
599,5.989999999999917,-0.623634,-0.2116587,1.0298162,0.84559023,-5.6524887,-0.016035212
600,5.9999999999999165,-0.7137002,-0.15147226,0.9813377,0.6151413,-5.757863,-0.057421334
601,6.009999999999916,-0.7051631,-0.09116385,1.068416,0.4885395,-5.668371,-0.1001819
602,6.019999999999916,-0.61741406,-0.0582351,1.1488476,0.63346726,-5.5138226,-0.16584991
603,6.029999999999916,-0.56680137,-0.038904708,1.1407983,0.9078985,-5.46816,-0.2218968
604,6.039999999999916,-0.44325754,-0.06366225,1.0877464,1.1104003,-5.614768,-0.31413746
605,6.0499999999999154,-0.3942913,-0.07646788,0.9695078,1.2542591,-5.852089,-0.50686544
606,6.059999999999915,-0.40264544,-0.06982114,0.92596865,1.3041973,-5.9486055,-0.75686204
607,6.069999999999915,-0.40264544,-0.06982114,0.92596865,1.3284792,-5.9487586,-0.9268353
608,6.079999999999915,-0.40264544,-0.06982114,0.92596865,1.3284792,-5.9487586,-0.9268353
609,6.089999999999915,-0.61198694,0.12110463,0.83675617,1.7734945,-6.040999,-0.8660542
610,6.099999999999914,-0.56021565,0.13421515,0.71918833,2.1171062,-6.0080123,-0.59742624
611,6.109999999999914,-0.45033115,0.1062867,0.6109503,2.648559,-5.7221274,-0.3052799
612,6.119999999999914,-0.24598998,0.037136313,0.3945962,3.1418326,-5.476254,-0.3643811
613,6.129999999999914,-0.18318142,0.0086590415,0.21867129,3.1418326,-5.476254,-0.3643811
614,6.1399999999999135,-0.18318142,0.0086590415,0.21867129,3.4524577,-5.2951326,-0.49403727
615,6.149999999999913,-0.14763056,0.06854059,-0.15988737,3.8348594,-4.6851835,-0.7156286
616,6.159999999999913,-0.14763056,0.06854059,-0.15988737,3.9032762,-4.3855543,-0.6429357
617,6.169999999999913,-0.17397358,0.1253122,-0.48636985,3.9526036,-3.853796,-0.35124752
618,6.179999999999913,-0.1797056,0.14275223,-0.6596117,3.794542,-3.4564283,-0.04550946
619,6.1899999999999125,-0.1797056,0.14275223,-0.6596117,3.794542,-3.4564283,-0.04550946
620,6.199999999999912,0.08000467,0.21232945,-1.0399387,3.1454978,-2.7676778,0.4906775
621,6.209999999999912,0.17354672,0.20854875,-1.1807396,2.7218628,-2.5576928,0.59849524
622,6.219999999999912,0.37337545,0.23916028,-1.2926974,1.9058995,-2.2624922,0.6606508
623,6.229999999999912,0.48350382,0.24513626,-1.2945877,0.9921979,-1.9472857,0.62781674
624,6.239999999999911,0.52765274,0.23641624,-1.2175101,0.64812803,-1.7701348,0.57848936
625,6.249999999999911,0.5404583,0.23190376,-1.130127,0.3107777,-1.4538593,0.4538729
626,6.259999999999911,0.5455806,0.20428021,-1.0897588,0.21181752,-1.2678508,0.37186423
627,6.269999999999911,0.5855829,0.16775368,-1.0231085,0.13591751,-0.8559749,0.2509129
628,6.2799999999999105,0.6405862,0.12104365,-0.9818866,0.15409076,-0.4251622,0.13545936
629,6.28999999999991,0.67924696,0.1144579,-0.9488969,0.23884831,-0.04886922,0.021991149
630,6.29999999999991,0.7010165,0.10799411,-0.8813319,0.39935315,0.36209038,-0.09621128
631,6.30999999999991,0.74394584,0.13659334,-0.8501106,0.89827734,1.2948816,-0.33658674
632,6.31999999999991,0.74394584,0.13659334,-0.8501106,0.9599747,1.6368134,-0.43799037
633,6.3299999999999095,0.73028654,0.17805916,-0.974996,0.8043568,2.0190623,-0.4992296
634,6.339999999999909,0.7063827,0.22184221,-0.9470064,0.47983465,2.3063216,-0.4877759
635,6.349999999999909,0.7063827,0.22184221,-0.9470064,0.47983465,2.3063216,-0.4877759
636,6.359999999999909,0.6544284,0.23897736,-0.82693845,0.22937989,2.3706152,-0.4541783
637,6.369999999999909,0.66138005,0.23428197,-0.78876555,-0.43890667,2.2359195,-0.37950003
638,6.379999999999908,0.72656673,0.2189762,-0.66613644,-1.1061243,1.9338466,-0.46685377
639,6.389999999999908,0.746446,0.19982874,-0.59405905,-1.3629931,1.8354974,-0.60994893
640,6.399999999999908,0.7354088,0.19854817,-0.51765215,-1.5230398,1.764637,-0.81504697
641,6.409999999999908,0.6404032,0.22556195,-0.436062,-1.604743,1.771051,-1.0737484
642,6.419999999999908,0.54423904,0.24751444,-0.3851444,-1.5899295,1.8344283,-1.1950052
643,6.429999999999907,0.46642965,0.30861557,-0.34380054,-1.4921911,2.0546453,-1.2221886
644,6.439999999999907,0.38386387,0.38032708,-0.31678677,-1.4312572,2.5579982,-1.2030991
645,6.449999999999907,0.3047129,0.40484068,-0.26275924,-1.4025466,2.9110782,-1.1285735
646,6.459999999999907,0.19366984,0.44953844,-0.10171325,-1.4025466,2.9110782,-1.1285735
647,6.4699999999999065,0.1999507,0.47173482,-0.057015523,-0.991587,3.8750236,-0.6001751
648,6.479999999999906,0.21769562,0.41606086,-0.09372498,-0.97585726,4.1340303,-0.50808716
649,6.489999999999906,0.2215983,0.34526405,-0.15031365,-1.2808317,4.152815,-0.538325
650,6.499999999999906,0.2215983,0.34526405,-0.15031365,-1.2808317,4.152815,-0.538325
651,6.509999999999906,0.17586392,0.2476364,-0.102810875,-1.6070337,4.1018076,-0.6000224
652,6.519999999999905,0.1153116,0.20275573,-0.012683666,-2.729804,3.8186715,-0.75640386
653,6.529999999999905,-0.04469773,0.16757075,0.31660384,-3.4660494,3.5298848,-0.57635134
654,6.539999999999905,-0.17897385,0.18092519,0.43295208,-3.4660494,3.5298848,-0.57635134
655,6.549999999999905,-0.24544115,0.18964522,0.84102464,-3.4660494,3.5298848,-0.57635134
656,6.559999999999905,-0.24544115,0.18964522,0.84102464,-3.4660494,3.5298848,-0.57635134
657,6.569999999999904,-0.20306063,0.20062146,0.98944795,-2.2901337,4.7931542,0.07422013
658,6.579999999999904,-0.11092111,0.116104335,0.88761276,-1.1267409,4.96496,-0.08552113
659,6.589999999999904,-0.11092111,0.116104335,0.88761276,-1.1267409,4.96496,-0.08552113
660,6.599999999999904,-0.28227258,0.04524654,0.55978876,-1.2409728,4.245819,-0.54336464
661,6.6099999999999035,-0.39496207,0.028233355,0.48380873,-1.5245669,4.0559926,-0.61285055
662,6.619999999999903,-0.6197923,0.083907336,0.6568066,-2.0480785,4.5045204,-0.49571714
663,6.629999999999903,-0.6197923,0.083907336,0.6568066,-2.029447,5.2349625,-0.23915374
664,6.639999999999903,-0.84029293,0.27605268,1.2579392,-1.7362317,5.918368,0.042455133
665,6.649999999999903,-0.86748964,0.23891638,1.2688545,-1.3020593,6.308711,0.46685377
666,6.659999999999902,-0.81840134,0.17275399,1.2229372,-1.2631166,6.2796946,0.5479461
667,6.669999999999902,-0.6691244,0.09000525,1.1143333,-1.4465289,5.8352904,0.45814893
668,6.679999999999902,-0.54728806,-0.009939604,1.0226816,-1.9109392,5.1860933,0.072540246
669,6.689999999999902,-0.5513126,-0.08549279,1.0314016,-2.3480134,4.6384525,-0.28893927
670,6.699999999999902,-0.78175294,-0.07476046,1.1654338,-2.6418395,4.0367503,-0.56230146
671,6.709999999999901,-1.0137787,-0.046527103,1.2952585,-2.3133466,3.5972328,-0.44348818
672,6.719999999999901,-1.0137787,-0.046527103,1.2952585,-2.3133466,3.5972328,-0.44348818
673,6.729999999999901,-1.012681,-0.06079623,1.2457434,-1.8585575,3.9926152,0.011759156
674,6.739999999999901,-1.012681,-0.06079623,1.2457434,-1.8585575,3.9926152,0.011759156
675,6.7499999999999005,-0.97633743,-0.053600688,1.3079422,-1.7240144,4.287816,0.09208794
676,6.7599999999999,-0.9518238,-0.058174126,1.3501397,-1.521818,4.425719,0.10140363
677,6.7699999999999,-0.9473723,-0.13988622,1.3920934,-1.1676689,4.215276,-0.07422013
678,6.7799999999999,-0.9675564,-0.166839,1.3771535,-1.1676689,4.215276,-0.07422013
679,6.7899999999999,-0.98804545,-0.17622979,1.3828856,-0.9981538,3.8157697,-0.24388795
680,6.7999999999998995,-0.98804545,-0.17622979,1.3828856,-0.8553641,3.7470474,-0.27458394
681,6.809999999999899,-0.98810637,-0.13287361,1.3638601,-0.63194007,3.716657,-0.3109304
682,6.819999999999899,-0.9729836,-0.112872444,1.352518,-0.45540005,3.7299433,-0.3491095
683,6.829999999999899,-0.9852404,-0.068479605,1.3801415,-0.28115073,3.700469,-0.36987892
684,6.839999999999899,-1.012742,-0.042807378,1.3897762,0.12492194,3.4820845,-0.408058
685,6.849999999999898,-1.0323772,-0.043539125,1.3550181,0.2667954,3.3669364,-0.41645738
686,6.859999999999898,-1.0379264,-0.077260606,1.1915939,0.54901516,3.0159945,-0.45356745
687,6.869999999999898,-1.0203644,-0.08866371,1.1003081,0.57940567,2.8916833,-0.4662429
688,6.879999999999898,-0.92798096,-0.08116327,0.9710323,0.57940567,2.8916833,-0.4662429
689,6.8899999999998975,-0.8729168,-0.056649648,0.9108458,0.20738874,2.9991956,-0.47403142
690,6.899999999999897,-0.81870633,-0.023294043,0.8759048,-0.13209961,3.0518827,-0.5143485
691,6.909999999999897,-0.95036036,0.04835648,0.9857892,-0.7464773,3.03936,-0.5731443
692,6.919999999999897,-0.95036036,0.04835648,0.9857892,-0.9421069,2.9782734,-0.5703954
693,6.929999999999897,-1.0981128,0.10842097,1.1575675,-1.7539468,2.3864977,-0.26358834
694,6.9399999999998965,-1.1720805,0.11604336,1.2390966,-1.7539468,2.3864977,-0.26358834
695,6.949999999999896,-1.1382982,0.100005835,1.3326998,-1.7539468,2.3864977,-0.26358834
696,6.959999999999896,-0.968898,0.091529734,1.4114848,-1.8671097,2.0969477,-0.0062613687
697,6.969999999999896,-0.968898,0.091529734,1.4114848,-1.8064812,1.8194622,0.23869559
698,6.979999999999896,-0.59704703,0.029148044,1.5991787,-0.49510628,1.3990341,0.065209866
699,6.989999999999895,-0.6436961,0.053600688,1.5701525,-0.49510628,1.3990341,0.065209866
700,6.999999999999895,-0.6949186,0.05573496,1.2786722,0.71761394,0.6979135,-0.4821254
701,7.009999999999895,-0.74778754,0.06104015,1.1996433,0.8407033,0.50686544,-0.56001073
702,7.019999999999895,-0.8470006,0.10018878,1.0012779,0.87017757,0.20677789,-0.57451874
703,7.0299999999998946,-0.8470006,0.10018878,1.0012779,0.87017757,0.20677789,-0.57451874
704,7.039999999999894,-0.8470006,0.10018878,1.0012779,0.87017757,0.20677789,-0.57451874
705,7.049999999999894,-0.8082179,0.18714507,0.81840134,0.69714993,-0.043066,-0.41431937
706,7.059999999999894,-0.8017541,0.20513393,0.7972416,0.6427829,0.005497787,-0.40882155
707,7.069999999999894,-0.85401326,0.22415942,0.752178,0.43951756,0.12140947,-0.34574974
708,7.0799999999998935,-0.9479211,0.22025676,0.7819359,0.26740626,0.10827587,-0.23900102
709,7.089999999999893,-1.0199986,0.2004995,0.84187835,0.14950927,0.015118915,-0.07666359
710,7.099999999999893,-1.0176814,0.14738666,0.8333413,0.094989546,-0.20479257,0.106137834
711,7.109999999999893,-0.8495008,0.0029879792,0.77248406,0.06582073,-0.48181996,0.22937989
712,7.119999999999893,-0.8495008,0.0029879792,0.77248406,0.15974127,-0.7266242,0.19425514
713,7.129999999999892,-0.7598614,-0.043356188,0.75345856,0.15974127,-0.7266242,0.19425514
714,7.139999999999892,-0.7360795,-0.070065066,0.72821325,0.3203988,-0.65133506,0.08368854
715,7.149999999999892,-0.7360795,-0.070065066,0.72821325,0.52564955,-0.45249844,-0.08093964
716,7.159999999999892,-0.848769,-0.015122834,0.75760514,0.5177083,-0.3465133,-0.12064589
717,7.169999999999892,-0.8952351,0.017866896,0.8024858,0.462425,-0.34681875,-0.09162979
718,7.179999999999891,-0.8952351,0.017866896,0.8024858,0.462425,-0.34681875,-0.09162979
719,7.189999999999891,-0.945482,0.038051,0.9450551,0.28512135,-0.5830709,0.14431691
720,7.199999999999891,-0.93096894,0.04853942,0.9962167,0.2125811,-0.7993172,0.25610524
721,7.209999999999891,-0.9296274,0.049210187,1.0610375,0.12996158,-1.1281154,0.37308595
722,7.2199999999998905,-0.91468745,0.03963646,1.080307,0.055588737,-1.4030048,0.45707992
723,7.22999999999989,-0.89194226,0.040307228,1.0990275,-0.047800206,-1.712408,0.52366424
724,7.23999999999989,-0.8798074,0.037014354,1.1031132,-0.19883664,-1.9817996,0.5311473
725,7.24999999999989,-0.8941375,0.015610667,1.138786,-0.3129157,-2.1096232,0.5175556
726,7.25999999999989,-0.8920643,-0.03146525,1.2051923,-0.537256,-2.3941336,0.49403727
727,7.269999999999889,-0.8709654,-0.033965394,1.2873312,-0.636827,-2.6487117,0.47983465
728,7.279999999999889,-0.8584647,-0.05408852,1.3685554,-0.63316184,-2.79761,0.44623706
729,7.289999999999889,-0.8584647,-0.05408852,1.3685554,-0.5297729,-2.9788845,0.3912592
730,7.299999999999889,-0.8235847,-0.057564333,1.4425232,-0.356898,-3.2160528,0.2771801
731,7.309999999999889,-0.88060015,-0.049637042,1.434108,0.10720685,-3.5004106,0.0364992
732,7.319999999999888,-0.88060015,-0.049637042,1.434108,0.32986724,-3.4306192,0.0033597588
733,7.329999999999888,-0.9480431,-0.033477563,1.2953194,0.32986724,-3.4306192,0.0033597588
734,7.339999999999888,-0.9582266,-0.031770147,1.2420237,0.34697145,-3.291342,0.027488936
735,7.349999999999888,-0.9866429,-0.033477563,1.2047654,-0.27290404,-3.193756,0.10995574
736,7.3599999999998875,-0.98688686,-0.07445556,1.2047654,-0.27290404,-3.193756,0.10995574
737,7.369999999999887,-0.94438434,-0.10500612,1.3137352,-1.2609786,-3.4513886,0.16966783
738,7.379999999999887,-0.94438434,-0.10500612,1.3137352,-1.3480269,-3.5801284,0.15134187
739,7.389999999999887,-0.9301152,-0.096042186,1.4921603,-1.3480269,-3.5801284,0.15134187
740,7.399999999999887,-0.9379206,-0.16903426,1.6874155,-0.7344127,-3.939928,0.20433442
741,7.4099999999998865,-0.9109068,-0.19653587,1.7289424,-0.7344127,-3.939928,0.20433442
742,7.419999999999886,-0.8866371,-0.22165927,1.7558341,0.48059824,-4.072944,-0.016187929
743,7.429999999999886,-0.930908,-0.23995303,1.761932,1.1696543,-4.0091085,-0.20540343
744,7.439999999999886,-1.001095,-0.22153732,1.6991235,1.8414533,-3.9562688,-0.344528
745,7.449999999999886,-1.0726236,-0.1975725,1.5713723,2.4872906,-3.9559634,-0.39064834
746,7.459999999999885,-1.0746968,-0.1764737,1.4755739,2.6994135,-4.0057487,-0.36102137
747,7.469999999999885,-1.0970762,-0.1308613,1.2959902,2.7186558,-4.2154284,-0.24251351
748,7.479999999999885,-1.0702454,-0.12714157,1.1894597,2.503173,-4.4619126,-0.14370605
749,7.489999999999885,-1.0261574,-0.10622571,1.1053693,2.072971,-4.8209486,-0.04718934
750,7.4999999999998845,-0.95334834,-0.08915155,1.1239071,1.611768,-5.0788865,-0.020922136
751,7.509999999999884,-0.95334834,-0.08915155,1.1239071,1.611768,-5.0788865,-0.020922136
752,7.519999999999884,-0.95334834,-0.08915155,1.1239071,1.1285735,-5.448307,-0.09330966
753,7.529999999999884,-0.86877024,-0.064394,1.2306815,1.0638218,-5.6268325,-0.09911288
754,7.539999999999884,-0.70095557,-0.13019052,1.2078143,1.1624765,-6.005874,-0.11407909
755,7.5499999999998835,-0.70095557,-0.13019052,1.2078143,1.4136949,-6.2705317,-0.20311269
756,7.559999999999883,-0.5453367,-0.19702369,1.0410973,2.1111503,-6.611089,-0.68554354
757,7.569999999999883,-0.53240913,-0.22733033,0.98072803,2.3590088,-6.7795353,-0.93767816
758,7.579999999999883,-0.5186278,-0.24855109,0.88267344,2.6783388,-7.166213,-1.2020301
759,7.589999999999883,-0.5283235,-0.24245316,0.8240115,2.9367347,-7.473631,-1.412015
760,7.599999999999882,-0.59991306,-0.21147576,0.74540937,3.1842878,-7.678576,-1.5807666
761,7.609999999999882,-0.59991306,-0.21147576,0.74540937,3.1842878,-7.678576,-1.5807666
762,7.619999999999882,-0.6772956,-0.09933506,0.4689298,3.726278,-7.600691,-1.5703819
763,7.629999999999882,-0.5904003,-0.005732042,0.3000175,3.781256,-7.17675,-1.4628695
764,7.6399999999998816,-0.4353303,0.08567573,0.093359105,3.7265835,-6.5871124,-1.2675453
765,7.649999999999881,-0.3187381,0.117811754,0.012256813,3.6152532,-6.2410574,-1.1386528
766,7.659999999999881,-0.099274084,0.14598413,-0.1164702,3.4240525,-5.659819,-1.0285443
767,7.669999999999881,0.006524771,0.2148906,-0.26099083,3.2149837,-5.216942,-1.0512991
768,7.679999999999881,0.03725827,0.19306004,-0.29794422,2.8495336,-4.7102294,-1.0091494
769,7.6899999999998805,0.021891521,0.18427904,-0.26532036,2.6488645,-4.477031,-0.9477574
770,7.69999999999988,0.010854292,0.22031774,-0.2595883,2.5717428,-4.351651,-0.9095783
771,7.70999999999988,0.05055173,0.18562058,-0.50338304,2.2510383,-4.2325325,-0.68829244
772,7.71999999999988,0.05055173,0.18562058,-0.50338304,2.0787745,-4.182289,-0.635758
773,7.72999999999988,0.20153615,0.2423312,-0.72821325,1.8909334,-3.9625301,-0.6267477
774,7.739999999999879,0.20153615,0.2423312,-0.72821325,1.8909334,-3.9625301,-0.6267477
775,7.749999999999879,0.24977067,0.2531855,-0.7809602,1.7476854,-3.6656497,-0.6264423
776,7.759999999999879,0.27641857,0.21629311,-0.7904729,1.7556267,-3.1041117,-0.6177375
777,7.769999999999879,0.32818988,0.19988972,-0.99146026,1.8591684,-2.4798074,-0.700357
778,7.779999999999879,0.3327633,0.17988855,-1.1456766,1.8038851,-2.104278,-0.73532903
779,7.789999999999878,0.3327633,0.17988855,-1.1456766,1.8038851,-2.104278,-0.73532903
780,7.799999999999878,0.32636052,0.16982698,-1.2299498,1.653154,-1.7611245,-0.77564615
781,7.809999999999878,0.29721245,0.11549455,-1.5536273,1.01312,-0.9779953,-0.8538369
782,7.819999999999878,0.22306179,0.10512808,-1.595154,0.63407815,-0.300393,-0.80756384
783,7.8299999999998775,0.2215983,0.12610492,-1.6080207,0.40103304,0.30970868,-0.71868294
784,7.839999999999877,0.22757424,0.1539724,-1.5820435,0.21380283,0.8567385,-0.6388123
785,7.849999999999877,0.20043853,0.19409668,-1.4795376,0.014966198,1.5771013,-0.46807548
786,7.859999999999877,0.19470648,0.20537783,-1.4446574,-0.37094793,2.4491115,-0.14630222
787,7.869999999999877,0.22342768,0.25403923,-1.2222664,-0.6293439,2.6881125,-0.03390302
788,7.879999999999876,0.22342768,0.25403923,-1.2222664,-0.6293439,2.6881125,-0.03390302
789,7.889999999999876,0.27105242,0.29361472,-0.9839599,-1.3972015,2.8081474,0.18585575
790,7.899999999999876,0.27105242,0.29361472,-0.9839599,-1.3972015,2.8081474,0.18585575
791,7.909999999999876,0.32355547,0.324958,-0.7430922,-1.6035212,2.8313603,0.2321288
792,7.919999999999876,0.30953026,0.31459153,-0.5964372,-2.1357377,3.0928106,0.20326541
793,7.929999999999875,0.31886008,0.30715206,-0.5031391,-2.1962132,3.1948252,0.14737125
794,7.939999999999875,0.32989728,0.30404213,-0.4318545,-2.2568417,3.3444872,0.05467244
795,7.949999999999875,0.34288585,0.2959319,-0.4106947,-2.2568417,3.3444872,0.05467244
796,7.959999999999875,0.3287387,0.26001516,-0.33825144,-2.3785565,3.6082282,-0.21151209
797,7.9699999999998745,0.2222081,0.26269826,-0.21409786,-2.4083362,3.7517817,-0.32604933
798,7.979999999999874,0.12140953,0.27763817,-0.08030956,-2.4083362,3.7517817,-0.32604933
799,7.989999999999874,0.12140953,0.27763817,-0.08030956,-2.1375701,3.869526,-0.2855795
800,7.999999999999874,0.051283482,0.30581054,-0.109640546,-2.1375701,3.869526,-0.2855795
801,8.009999999999874,0.014817937,0.30562758,-0.11293342,-2.4898868,3.9223657,-0.22693644
802,8.019999999999873,-0.04841746,0.2669058,-0.053600688,-2.918256,3.9174788,-0.079107046
803,8.029999999999873,-0.07262619,0.22958656,0.051832296,-3.189633,3.8792996,0.0759
804,8.039999999999873,-0.05506419,0.20324357,0.16153382,-3.4077117,3.9332087,0.23701571
805,8.049999999999873,-0.039270584,0.18836464,0.19891405,-3.5216382,4.02774,0.30085114
806,8.059999999999873,-0.008902958,0.09281029,0.29440743,-3.8643336,4.502688,0.2574797
807,8.069999999999872,-0.040734082,0.021037813,0.4499653,-3.8643336,4.502688,0.2574797
808,8.079999999999872,-0.38831535,0.039819397,0.88919824,-3.7867537,4.86432,0.1366811
809,8.089999999999872,-0.38831535,0.039819397,0.88919824,-3.452916,5.2144985,0.2144137
810,8.099999999999872,-0.39599872,0.065491624,1.0115834,-2.4565945,5.4104333,0.49877146
811,8.109999999999872,-0.30056632,-0.008476105,0.8653554,-2.3041837,5.2257996,0.45158213
812,8.119999999999871,-0.30056632,-0.008476105,0.8653554,-2.3561072,5.098129,0.27565295
813,8.129999999999871,-0.2967856,-0.14945993,0.9616415,-2.3593142,5.1476088,-0.08307768
814,8.139999999999871,-0.2967856,-0.14945993,0.9616415,-2.1870503,5.29834,-0.40194935
815,8.14999999999987,-0.5373484,-0.08939546,1.1500062,-1.8741345,5.5782685,-0.6543894
816,8.15999999999987,-0.5373484,-0.08939546,1.1500062,-1.8741345,5.5782685,-0.6543894
817,8.16999999999987,-0.86578226,-0.00048783334,1.0925028,-1.8467983,5.670051,-0.6252206
818,8.17999999999987,-1.0546957,-0.012561709,1.0254866,-2.3887885,5.4889297,-0.29993483
819,8.18999999999987,-1.1219556,-0.05286894,1.0501223,-2.6145031,5.4205127,-0.14569137
820,8.19999999999987,-1.1219556,-0.05286894,1.0501223,-2.6145031,5.4205127,-0.14569137
821,8.20999999999987,-1.0980519,-0.049027253,1.2964171,-3.0149255,5.2697816,0.22052236
822,8.21999999999987,-1.0514028,-0.112872444,1.3473958,-3.0833423,4.9192977,0.4552473
823,8.229999999999869,-1.0960395,-0.20269476,1.3821537,-3.2378912,4.714658,0.52366424
824,8.239999999999869,-1.0912222,-0.26038104,1.6168016,-3.3319645,4.509102,0.56306505
825,8.249999999999869,-1.0475001,-0.25995418,1.6815615,-3.202461,4.3634105,0.59498274
826,8.259999999999868,-1.0232304,-0.29282197,1.7109535,-2.3467915,4.5139885,0.5093089
827,8.269999999999868,-1.0232304,-0.29282197,1.7109535,-2.3467915,4.5139885,0.5093089
828,8.279999999999868,-1.0254257,-0.30379823,1.7924826,-1.7235563,4.7473392,0.44990227
829,8.289999999999868,-0.9240173,-0.27117437,1.7243689,-1.1064297,4.8230867,0.3923282
830,8.299999999999867,-0.9100531,-0.25403923,1.5443585,-0.3191771,4.704426,0.20693061
831,8.309999999999867,-0.9506652,-0.24513626,1.3948375,0.29077184,4.510018,-0.16646078
832,8.319999999999867,-0.989509,-0.23702602,1.2715377,0.16905695,4.3223295,-0.2509129
833,8.329999999999867,-0.989509,-0.23702602,1.2715377,0.16905695,4.3223295,-0.2509129
834,8.339999999999867,-1.0223768,-0.2374529,1.1966553,0.0013744468,4.1772494,-0.2855795
835,8.349999999999866,-1.0112176,-0.2409287,1.1568358,-0.34193182,3.9321396,-0.33567044
836,8.359999999999866,-0.9637148,-0.1911087,1.252756,-0.7654142,3.591277,-0.38224894
837,8.369999999999866,-0.9143826,-0.13945936,1.3100765,-0.78022766,3.4434474,-0.36346483
838,8.379999999999866,-0.9143826,-0.13945936,1.3100765,-0.78022766,3.4434474,-0.36346483
839,8.389999999999866,-0.84706163,-0.09171267,1.3213576,-0.7325801,3.2948544,-0.3575089
840,8.399999999999865,-0.80486405,-0.008415125,1.390447,-0.5726862,3.1077769,-0.44394633
841,8.409999999999865,-0.95694613,0.036587503,1.4171559,-0.495259,2.9190195,-0.4352415
842,8.419999999999865,-0.95694613,0.036587503,1.4171559,-0.50915617,2.7433958,-0.35628715
843,8.429999999999865,-0.974691,0.07591906,1.4125824,-0.6042985,2.4182627,-0.20265454
844,8.439999999999864,-0.89974767,0.104152426,1.408131,-0.83077675,1.9436204,-0.038179077
845,8.449999999999864,-0.857428,0.10738432,1.4163022,-0.9056077,1.7771597,0.0010690142
846,8.459999999999864,-0.73986024,0.11567748,1.4997216,-0.9954049,1.3335189,0.02076942
847,8.469999999999864,-0.73986024,0.11567748,1.4997216,-0.9954049,1.3335189,0.02076942
848,8.479999999999864,-0.73986024,0.11567748,1.4997216,-0.8691085,1.0522153,-0.059253927
849,8.489999999999863,-0.67540526,0.09768862,1.5464318,-0.344528,0.64766985,-0.19746219
850,8.499999999999863,-0.7480924,0.09372498,1.3576401,0.29917124,0.17913623,-0.31871894
851,8.509999999999863,-0.7596175,0.10396948,1.2321451,0.50717086,-0.06856962,-0.36285394
852,8.519999999999863,-0.76406896,0.12750745,1.1314075,0.602924,-0.23396139,-0.3921755
853,8.529999999999863,-0.7653495,0.1510454,1.0458537,0.6421721,-0.3827071,-0.41813725
854,8.539999999999862,-0.79925394,0.15500905,0.9743252,0.6421721,-0.3827071,-0.41813725
855,8.549999999999862,-0.8366952,0.16677801,0.9094433,0.6365216,-0.4364632,-0.41554108
856,8.559999999999862,-0.85791594,0.16019227,0.8893202,0.54473907,-0.54550266,-0.29336804
857,8.569999999999862,-0.8831613,0.12872702,0.84462243,0.50335294,-0.66156703,-0.19410244
858,8.579999999999862,-0.8973084,0.096895896,0.81712085,0.46181414,-0.7483099,-0.10949759
859,8.589999999999861,-0.9099311,0.062076796,0.7808992,0.46181414,-0.7483099,-0.10949759
860,8.599999999999861,-0.8889543,-0.0013415418,0.70351666,0.3622431,-1.0050261,0.09514226
861,8.60999999999986,-0.8373049,-0.013354438,0.6826008,0.3622431,-1.0050261,0.09514226
862,8.61999999999986,-0.8373049,-0.013354438,0.6826008,0.22571471,-0.9605856,0.11866058
863,8.62999999999986,-0.7428482,-0.056161813,0.66705114,0.19593503,-0.91324353,0.12186762
864,8.63999999999986,-0.7623616,-0.054210484,0.71504176,0.20815234,-0.8912524,0.09865474
865,8.64999999999986,-0.8005955,-0.039270584,0.7286401,0.2658791,-0.86162543,0.030390546
866,8.65999999999986,-0.8005955,-0.039270584,0.7286401,0.33185256,-0.81122905,-0.0
867,8.66999999999986,-0.8441956,-0.025184397,0.7923633,0.3715588,-0.74388117,0.036651913
868,8.67999999999986,-0.8441956,-0.025184397,0.7923633,0.4147775,-0.6739371,0.09789115
869,8.68999999999986,-0.8360244,-0.037624147,0.8607819,0.40790528,-0.66645396,0.21395555
870,8.699999999999859,-0.8511472,-0.039941356,0.91188246,0.36025777,-0.75808376,0.31688634
871,8.709999999999859,-0.8511472,-0.039941356,0.91188246,0.36025777,-0.75808376,0.31688634
872,8.719999999999859,-0.8533425,-0.047197875,0.945543,0.24266621,-1.0076222,0.41615194
873,8.729999999999858,-0.83260953,-0.040673107,0.963227,-0.15577064,-1.5384641,0.54061574
874,8.739999999999858,-0.8038884,-0.050063897,1.0196327,-0.48380527,-1.7712038,0.59696805
875,8.749999999999858,-0.7944976,-0.062015813,1.0662208,-0.66798115,-1.8883371,0.61468315
876,8.759999999999858,-0.8230968,-0.113299295,1.229279,-0.9007208,-2.0728185,0.6409504
877,8.769999999999857,-0.8068154,-0.07939488,1.4356935,-0.79901177,-2.0732768,0.65011334
878,8.779999999999857,-0.8068154,-0.07939488,1.4356935,-0.79901177,-2.0732768,0.65011334
879,8.789999999999857,-0.79333895,-0.037624147,1.5283818,-0.5511532,-2.1426098,0.66905016
880,8.799999999999857,-0.81419384,-0.06854059,1.6352785,-0.033292156,-2.4164302,0.6588182
881,8.809999999999857,-0.8606599,-0.08860273,1.7140025,0.22342396,-2.5147796,0.66691214
882,8.819999999999856,-0.83053625,-0.14720371,1.7583953,0.40301836,-2.7919595,0.68752885
883,8.829999999999856,-0.7746184,-0.15348457,1.8248016,0.57986385,-3.1167872,0.6239988
884,8.839999999999856,-0.74949497,-0.1293978,1.8349851,0.7797695,-3.484528,0.42241332
885,8.849999999999856,-0.7879728,-0.12580003,1.8252894,0.86070913,-3.720933,0.29794952
886,8.859999999999856,-0.95383614,-0.107933134,1.7790672,0.95142263,-4.302782,0.21395555
887,8.869999999999855,-0.93767667,-0.09085896,1.761993,1.084744,-4.821712,0.2929099
888,8.879999999999855,-0.90011346,-0.110067405,1.7723596,1.3413074,-5.049565,0.29657507
889,8.889999999999855,-0.90011346,-0.110067405,1.7723596,1.3413074,-5.049565,0.29657507
890,8.899999999999855,-0.89303994,-0.107201375,1.595459,1.5430456,-5.147303,0.27259862
891,8.909999999999854,-0.94285995,-0.07750452,1.5366141,1.8596265,-5.3774467,0.07742717
892,8.919999999999854,-1.0104249,-0.029635875,1.5382605,1.8545868,-5.351943,0.05513059
893,8.929999999999854,-1.0117663,0.033233646,1.5428339,1.8645134,-5.4017286,0.116675265
894,8.939999999999854,-1.0117663,0.033233646,1.5428339,1.8645134,-5.4017286,0.116675265
895,8.949999999999854,-1.048049,0.07085779,1.492831,1.8645134,-5.4017286,0.116675265
896,8.959999999999853,-1.048049,0.07085779,1.492831,1.8645134,-5.4017286,0.116675265
897,8.969999999999853,-0.9365181,0.090249166,1.3908739,1.7672331,-5.7218223,0.39385536
898,8.979999999999853,-0.8773073,0.058905877,1.3830684,1.6493362,-5.839719,0.40698898
899,8.989999999999853,-0.82895076,0.04049017,1.3355048,1.6384933,-6.026491,0.39675698
900,8.999999999999853,-0.73870164,0.012805625,1.197387,1.5815301,-6.3346725,0.29978213
901,9.009999999999852,-0.65137947,-0.00030489583,1.047866,1.4184291,-6.520223,0.11957687
902,9.019999999999852,-0.6035718,-0.02853825,0.962922,1.2374603,-6.660875,0.011148291
903,9.029999999999852,-0.59472984,-0.034819108,0.9552996,1.1104003,-6.7300553,-0.10170906
904,9.039999999999852,-0.5919248,-0.027989438,0.96597105,1.1424707,-6.7201285,-0.15897769
905,9.049999999999851,-0.48838213,-0.030184686,0.84565914,1.3217597,-6.698443,-0.2680171
906,9.059999999999851,-0.48838213,-0.030184686,0.84565914,1.3561208,-6.6958466,-0.28985557
907,9.069999999999851,-0.3413004,-0.02872119,0.7121757,1.5862644,-6.2749605,-0.5849035
908,9.07999999999985,-0.3413004,-0.02872119,0.7121757,1.5862644,-6.2749605,-0.5849035
909,9.08999999999985,-0.27946752,-0.071467586,0.6436351,1.9381227,-6.2378507,-0.9108001
910,9.09999999999985,-0.27946752,-0.071467586,0.6436351,1.9381227,-6.2378507,-0.9108001
911,9.10999999999985,-0.181474,-0.102445,0.5133836,2.3211353,-6.105293,-1.2012665
912,9.11999999999985,-0.098054506,-0.09988388,0.40648714,2.5068383,-6.0946026,-1.3567317
913,9.12999999999985,-0.060308397,-0.0482955,0.30099317,2.6575692,-5.946315,-1.5447255
914,9.13999999999985,-0.005854,0.0307335,0.21915914,2.8319712,-5.555972,-1.709201
915,9.14999999999985,-0.015183813,0.056771606,0.16177773,2.9601002,-5.3050594,-1.7547104
916,9.15999999999985,-0.06366225,0.067077085,-0.020123126,2.9601002,-5.3050594,-1.7547104
917,9.169999999999849,-0.0757971,0.0746385,-0.07982173,3.163671,-4.6801443,-1.7658587
918,9.179999999999849,-0.0866514,0.09226148,-0.32331154,3.1351132,-4.3919683,-1.6607898
919,9.189999999999849,-0.07402871,0.09756667,-0.5191157,2.9271135,-4.2137485,-1.5233452
920,9.199999999999848,-0.04524654,0.1015913,-0.71126103,2.5935812,-4.097226,-1.4023939
921,9.209999999999848,-0.012378771,0.12799528,-0.86389184,2.1923954,-3.9300015,-1.3040446
922,9.219999999999848,0.009573729,0.16220458,-1.0322554,1.6325374,-3.4790304,-1.069625
923,9.229999999999848,-0.0041465834,0.16488767,-1.077258,1.5028812,-3.0610456,-1.0048733
924,9.239999999999847,0.020610958,0.16976601,-1.1199434,1.5028812,-3.0610456,-1.0048733
925,9.249999999999847,0.07488242,0.16811956,-1.282148,1.6108516,-1.9643899,-1.0135782
926,9.259999999999847,0.09896919,0.15817997,-1.3953253,1.6108516,-1.9643899,-1.0135782
927,9.269999999999847,0.09896919,0.15817997,-1.3953253,1.6404786,-1.3574953,-1.0134255
928,9.279999999999847,0.1437279,0.14726469,-1.5282599,1.5334245,-0.65148777,-1.006095
929,9.289999999999846,0.15269183,0.16866837,-1.5610667,1.2854131,0.042760566,-0.9786061
930,9.299999999999846,0.14311811,0.18330337,-1.5428339,1.1045971,0.40546182,-0.93111134
931,9.309999999999846,0.10512808,0.2177566,-1.5124663,0.31444287,0.97219205,-0.61422503
932,9.319999999999846,0.124336526,0.27062553,-1.4685613,0.31444287,0.97219205,-0.61422503
933,9.329999999999846,0.124336526,0.27062553,-1.4685613,-0.19593503,1.1939361,-0.36147952
934,9.339999999999845,0.17397358,0.29270002,-1.3708726,-0.75900006,1.5047138,0.004428773
935,9.349999999999845,0.26428372,0.2713573,-1.2249495,-1.3063353,1.8593211,0.3323107
936,9.359999999999845,0.32056746,0.2602591,-1.1433594,-1.5462526,2.088701,0.42149702
937,9.369999999999845,0.35733792,0.23946518,-1.0038391,-1.7744108,2.4291058,0.45173484
938,9.379999999999844,0.35733792,0.23946518,-1.0038391,-1.8790215,2.6992607,0.39370266
939,9.389999999999844,0.32422623,0.2558076,-0.72028595,-1.7647897,3.1464143,0.17852537
940,9.399999999999844,0.31404272,0.27678445,-0.5403364,-1.7647897,3.1464143,0.17852537
941,9.409999999999844,0.31404272,0.27678445,-0.5403364,-1.6006197,3.232699,0.06414085
942,9.419999999999844,0.3204455,0.26092985,-0.48600397,-1.6006197,3.232699,0.06414085
943,9.429999999999843,0.3204455,0.26092985,-0.48600397,-1.5358679,3.2656856,-0.16676621
944,9.439999999999843,0.25690526,0.25367334,-0.51088345,-1.6481144,3.3281465,-0.31948254
945,9.449999999999843,0.1381788,0.32270175,-0.47691807,-1.6481144,3.3281465,-0.31948254
946,9.459999999999843,0.1381788,0.32270175,-0.47691807,-2.103209,3.7667477,-0.5859725
947,9.469999999999843,-0.08110229,0.38422972,-0.17135146,-2.5156958,4.4748936,-0.3210097
948,9.479999999999842,-0.16196068,0.36282605,-0.014513042,-2.6035078,4.640896,0.021380283
949,9.489999999999842,-0.18726702,0.33947104,0.042014647,-2.6035078,4.640896,0.021380283
950,9.499999999999842,-0.17690057,0.30788383,0.04981998,-2.8863382,4.580115,0.5166393
951,9.509999999999842,-0.120067984,0.1557408,0.060552314,-3.2510247,4.3499713,0.7367035
952,9.519999999999841,-0.088846646,0.071772486,0.107201375,-3.5286632,4.2933135,0.7498371
953,9.529999999999841,-0.07805333,0.0043295207,0.19098675,-3.6393824,4.3705883,0.7108944
954,9.539999999999841,-0.09622513,-0.036770437,0.3287387,-3.7207801,4.745812,0.53878313
955,9.54999999999984,-0.19976775,-0.025977125,0.538568,-3.6986363,5.283984,0.43401974
956,9.55999999999984,-0.2906267,0.009390792,0.78724104,-3.5117116,6.1506495,0.4437936
957,9.56999999999984,-0.40959707,0.03280679,1.0264623,-3.2114713,6.7019553,0.5363397
958,9.57999999999984,-0.47429594,0.0062808543,1.0753676,-3.2114713,6.7019553,0.5363397
959,9.58999999999984,-0.4993584,-0.12494631,1.0806727,-2.673757,7.169267,0.5635232
960,9.59999999999984,-0.4993584,-0.12494631,1.0806727,-2.685058,6.3248987,0.032375857
961,9.60999999999984,-0.43892804,-0.29745638,0.9820085,-2.8347201,6.0266438,-0.35521814
962,9.61999999999984,-0.43892804,-0.29745638,0.9820085,-2.8347201,6.0266438,-0.35521814
963,9.62999999999984,-0.52082306,-0.2642227,1.1669583,-2.8481593,6.100253,-0.87674433
964,9.639999999999839,-0.59515667,-0.23489174,1.1740929,-2.5977044,6.5684814,-1.374905
965,9.649999999999839,-0.59515667,-0.23489174,1.1740929,-2.4086416,7.0173144,-1.6044376
966,9.659999999999838,-0.9637148,-0.17946169,1.0932345,-2.2035437,8.00829,-1.7515033
967,9.669999999999838,-1.3497739,-0.13201989,1.1194556,-2.2035437,8.00829,-1.7515033
968,9.679999999999838,-1.5672866,-0.05939371,1.2338525,-2.4349089,7.371769,-1.1643091
969,9.689999999999838,-1.4214244,-0.07701669,1.2326329,-3.2963815,5.034293,-0.14844026
970,9.699999999999838,-1.176654,-0.16439983,1.3243456,-3.8321104,3.4628425,0.112704635
971,9.709999999999837,-1.0781727,-0.23025733,1.4133751,-3.797291,2.8979447,0.11407909
972,9.719999999999837,-1.068538,-0.2619665,1.393374,-3.5556939,2.7553077,0.058643065
973,9.729999999999837,-1.1622629,-0.263491,1.4105091,-3.1033483,3.0778446,0.0015271631
974,9.739999999999837,-1.2407432,-0.23605035,1.4449624,-2.579684,3.7684276,0.033750303
975,9.749999999999837,-1.232084,-0.21684194,1.490087,-2.1786509,4.2971315,0.1001819
976,9.759999999999836,-1.2161076,-0.19836523,1.5914342,-1.7539468,4.6098948,0.16401732
977,9.769999999999836,-1.1595188,-0.18153499,1.7243079,-1.1078042,4.6337185,0.24373524
978,9.779999999999836,-1.0639036,-0.19653587,1.7288814,-0.35201108,4.3235517,0.24007004
979,9.789999999999836,-0.9971314,-0.22513509,1.6436324,0.08277224,4.068668,0.1740966
980,9.799999999999836,-0.92901766,-0.26001516,1.4317908,0.6776023,3.71177,-0.11301007
981,9.809999999999835,-0.93706685,-0.25592956,1.056403,0.7829765,3.634801,-0.64675355
982,9.819999999999835,-0.99011874,-0.22915971,0.9849355,0.7829765,3.634801,-0.64675355
983,9.829999999999835,-0.99011874,-0.22915971,0.9849355,0.6036876,3.6980255,-0.84391034
984,9.839999999999835,-1.053598,-0.18287653,0.96810526,-0.22953261,3.6413677,-0.9430232
985,9.849999999999834,-1.2628785,-0.07012604,0.9675564,-0.58169645,3.5001051,-0.8614727
986,9.859999999999834,-1.3212966,-0.01097625,1.124151,-1.1348349,3.2394185,-0.6302602
987,9.869999999999834,-1.2836114,0.02274523,1.2351941,-1.5580118,2.910162,-0.30008754
988,9.879999999999834,-1.2281204,0.028172374,1.2878191,-1.7854064,2.685669,-0.102319926
989,9.889999999999834,-1.089027,-0.0036587503,1.437279,-2.1361957,2.3189971,0.23945917
990,9.899999999999833,-1.089027,-0.0036587503,1.437279,-2.1361957,2.3189971,0.23945917
991,9.909999999999833,-1.089027,-0.0036587503,1.437279,-2.1361957,2.3189971,0.23945917
992,9.919999999999833,-0.80693734,-0.016769271,1.8047395,-1.902998,1.5995506,0.472657
993,9.929999999999833,-0.7490071,-0.030977417,1.8245578,-1.638646,1.3521502,0.4288274
994,9.939999999999833,-0.6921136,-0.098725274,1.7279665,-1.052979,0.8038987,0.30024028
995,9.949999999999832,-0.63918364,-0.11372615,1.6619263,-0.6407976,0.45845437,0.22968534
996,9.959999999999832,-0.5616791,-0.08482202,1.545395,-0.07925977,0.046731193,0.057421334
997,9.969999999999832,-0.56045955,-0.08622454,1.4221561,0.34040466,-0.18280143,-0.18112154
998,9.979999999999832,-0.62125576,-0.0787241,1.3005637,0.68829244,-0.311694,-0.44394633
999,9.989999999999831,-0.7450435,-0.021403689,1.086283,1.0332786,-0.36117408,-0.70448035
1000,9.999999999999831,-0.93224955,0.035794772,0.84090275,1.0626001,-0.35613444,-0.698219
