id,timestamp,acc_x,acc_y,acc_z,gyro_x,gyro_y,gyro_z
0,0,0.32514092,-0.08415125,-0.20928052,-3.2508721,-4.8734827,1.0706941
1,0.01,0.5316164,-0.077809416,-0.14836231,-3.3997705,-5.0159674,1.1485794
2,0.02,0.6897963,-0.091956586,-0.014513042,-4.302782,-5.745493,1.1104003
3,0.03,0.6897963,-0.091956586,-0.014513042,-4.725348,-6.1953955,0.8576548
4,0.04,0.8437687,-0.16799761,0.28519958,-4.725348,-6.1953955,0.8576548
5,0.05,0.8437687,-0.16799761,0.28519958,-4.725348,-6.1953955,0.8576548
6,0.060000000000000005,0.90669924,-0.41764635,0.9198098,-4.264603,-6.1816506,-0.026419923
7,0.07,0.86651397,-0.4489896,0.91755354,-4.0453024,-6.049551,-0.004886922
8,0.08,0.86651397,-0.4489896,0.91755354,-4.0453024,-6.049551,-0.004886922
9,0.09,0.89377165,-0.5055173,0.8556597,-3.78767,-5.7364826,0.16065755
10,0.09999999999999999,1.2195834,-0.71827364,0.61296254,-4.143499,-5.7178516,0.23793201
11,0.10999999999999999,1.3729459,-0.8219992,0.64503765,-4.522388,-5.83132,0.24083363
12,0.11999999999999998,1.5850925,-0.8610868,0.957068,-5.13814,-6.106362,0.10720685
13,0.12999999999999998,1.6147283,-0.8498667,1.2058021,-5.209459,-6.104682,-0.07070765
14,0.13999999999999999,1.6147283,-0.8498667,1.2058021,-5.209459,-6.104682,-0.07070765
15,0.15,1.5902147,-0.86425775,1.32898,-5.02849,-5.9304323,-0.22434026
16,0.16,1.5707624,-0.8766975,1.4274004,-4.2250495,-5.3484306,-0.5459608
17,0.17,1.5828972,-0.9613976,1.2867215,-3.6140316,-4.9629745,-0.78954333
18,0.18000000000000002,1.6381443,-1.0746359,1.14153,-3.3896914,-4.9312096,-0.8775079
19,0.19000000000000003,1.6770492,-1.1056132,1.1218338,-3.3269248,-5.1321845,-0.872621
20,0.20000000000000004,1.7140634,-1.0922589,1.1112844,-3.2821789,-5.379585,-0.85062987
21,0.21000000000000005,1.7768719,-1.088783,1.1693976,-3.3115005,-5.437464,-1.0096076
22,0.22000000000000006,1.7149782,-1.1397616,1.1962284,-3.2982142,-5.209153,-1.0752755
23,0.23000000000000007,1.6339977,-1.1577505,1.2141562,-3.2982142,-5.209153,-1.0752755
24,0.24000000000000007,1.539419,-1.1287854,1.3015394,-3.1422908,-4.7809367,-1.0479393
25,0.25000000000000006,1.4680125,-1.1027473,1.3565426,-2.9407053,-4.7552805,-0.99296147
26,0.26000000000000006,1.4001427,-1.0196327,1.4206316,-2.2904391,-4.9083023,-0.77534074
27,0.2700000000000001,1.4293517,-0.9472504,1.4312421,-1.6525432,-5.2187743,-0.5216789
28,0.2800000000000001,1.5165519,-0.8619405,1.4300835,-1.1614076,-5.531385,-0.29947668
29,0.2900000000000001,1.5165519,-0.8619405,1.4300835,-0.6733262,-5.917452,-0.10277808
30,0.3000000000000001,1.5165519,-0.8619405,1.4300835,-0.515723,-6.0640593,-0.048563786
31,0.3100000000000001,1.7485166,-0.6344882,1.2531829,-0.64721173,-5.95502,-0.11102476
32,0.3200000000000001,1.7347963,-0.6431473,1.1668974,-0.8341365,-5.8123827,-0.18127427
33,0.3300000000000001,1.624424,-0.7102244,1.1295781,-1.8377881,-5.0599494,-0.45860708
34,0.34000000000000014,1.5055757,-0.76772773,1.2022043,-2.436436,-4.49887,-0.647059
35,0.35000000000000014,1.3952644,-0.79718065,1.3373951,-2.9025261,-4.0002513,-0.7644979
36,0.36000000000000015,1.1546406,-0.79827833,1.761932,-3.2458324,-3.4507778,-0.8167268
37,0.37000000000000016,1.1128699,-0.77474034,1.8859637,-3.176194,-3.132975,-0.77472985
38,0.38000000000000017,1.0504881,-0.7183956,1.9460282,-2.40742,-2.2773056,-0.7538077
39,0.3900000000000002,1.0504881,-0.7183956,1.9460282,-2.40742,-2.2773056,-0.7538077
40,0.4000000000000002,1.0543298,-0.714249,1.9986532,-1.9911152,-1.9840903,-0.6826419
41,0.4100000000000002,1.0582324,-0.6626606,2.1174405,-0.782213,-1.0309879,-0.24709499
42,0.4200000000000002,1.0582324,-0.6626606,2.1174405,-0.782213,-1.0309879,-0.24709499
43,0.4300000000000002,1.0665256,-0.58320475,1.9679198,0.17241672,0.07376198,-0.07925977
44,0.4400000000000002,1.0665256,-0.58320475,1.9679198,0.17241672,0.07376198,-0.07925977
45,0.45000000000000023,1.0025585,-0.5785094,1.7338207,0.7115053,0.895223,0.07238753
46,0.46000000000000024,0.998351,-0.56917953,1.6088743,0.8727737,1.2980887,0.24556783
47,0.47000000000000025,1.036219,-0.5755824,1.5323455,0.8727737,1.2980887,0.24556783
48,0.48000000000000026,1.036219,-0.5755824,1.5323455,0.9639453,1.614975,0.37812558
49,0.49000000000000027,1.2379991,-0.6349761,1.4659392,1.0966558,2.079996,0.54718256
50,0.5000000000000002,1.4069114,-0.65881896,1.4552069,1.1673635,2.3267858,0.48166725
51,0.5100000000000002,1.4293517,-0.667417,1.458012,1.1866057,2.3829854,0.4558582
52,0.5200000000000002,1.4293517,-0.667417,1.458012,1.2927436,3.052341,0.28619036
53,0.5300000000000002,1.4580729,-0.7783381,1.4767325,1.3322971,3.366173,0.24724771
54,0.5400000000000003,1.4453282,-0.81584024,1.510149,1.4121678,3.6511416,0.24174993
55,0.5500000000000003,1.4828304,-0.8968206,1.5612496,1.6175711,3.975969,0.30283645
56,0.5600000000000003,1.5722258,-0.9692639,1.5869218,1.8611537,4.258342,0.38637227
57,0.5700000000000003,1.6758906,-1.047744,1.5479561,2.1940753,4.692667,0.48334712
58,0.5800000000000003,1.7496144,-1.100674,1.4675246,2.4320073,5.222898,0.5878051
59,0.5900000000000003,1.8479736,-1.1719587,1.3762999,2.5129468,5.6080484,0.70539665
60,0.6000000000000003,1.8948058,-1.2049484,1.3372121,2.5883887,6.1630197,0.8932377
61,0.6100000000000003,1.917307,-1.2126317,1.3375171,2.5883887,6.1630197,0.8932377
62,0.6200000000000003,1.940418,-1.2329987,1.3282483,2.8570168,6.502966,1.0024298
63,0.6300000000000003,1.9514554,-1.2451947,1.3041614,3.0560062,6.571383,1.0328205
64,0.6400000000000003,1.9568825,-1.2511706,1.252634,3.626096,6.3589544,1.0201449
65,0.6500000000000004,1.9277344,-1.2474508,1.2406212,3.8406625,6.1943264,1.0074695
66,0.6600000000000004,1.8727922,-1.1844593,1.235377,4.2960625,5.9212694,0.9943359
67,0.6700000000000004,1.8815123,-1.126773,1.1377493,4.607451,5.774204,0.9295842
68,0.6800000000000004,1.8815123,-1.126773,1.1377493,4.6486845,5.7157135,0.8542951
69,0.6900000000000004,1.7624809,-0.9764594,0.9768253,4.4929137,5.8146734,0.7684685
70,0.7000000000000004,1.7395526,-0.8990769,0.9839599,4.4113636,5.962961,0.70005155
71,0.7100000000000004,1.7395526,-0.8990769,0.9839599,4.371199,6.1663795,0.5888741
72,0.7200000000000004,1.674366,-0.8056568,0.91682184,4.359898,6.3029075,0.46471575
73,0.7300000000000004,1.6102768,-0.77108157,0.86852634,4.3432517,6.2599945,0.4268421
74,0.7400000000000004,1.5911903,-0.7249813,0.8453542,4.310876,6.188981,0.41829
75,0.7500000000000004,1.5911903,-0.7249813,0.8453542,4.310876,6.188981,0.41829
76,0.7600000000000005,1.560213,-0.4911262,0.7349209,3.8276815,6.2819853,0.16661349
77,0.7700000000000005,1.560213,-0.4911262,0.7349209,3.8276815,6.2819853,0.16661349
78,0.7800000000000005,1.2284253,-0.46142936,0.5996691,3.8276815,6.2819853,0.16661349
79,0.7900000000000005,1.3573962,-0.4291104,0.7019312,3.6494617,7.230048,-0.11133019
80,0.8000000000000005,1.0803679,-0.51265186,0.42093918,3.6861136,7.362148,-0.058948494
81,0.8100000000000005,1.0803679,-0.51265186,0.42093918,3.8542542,7.5038686,0.11652254
82,0.8200000000000005,0.97719115,-0.4463675,0.16958307,4.0320163,7.115969,0.37980548
83,0.8300000000000005,0.9379206,-0.3770952,0.10500612,3.9061778,6.735706,0.39278635
84,0.8400000000000005,0.8618796,-0.33087295,0.07689473,3.7849212,6.6384254,0.32635477
85,0.8500000000000005,0.7079681,-0.20769504,0.03823394,3.7288742,6.54985,0.17959438
86,0.8600000000000005,0.7079681,-0.20769504,0.03823394,3.7288742,6.54985,0.17959438
87,0.8700000000000006,0.49277264,-0.12153149,-0.18281554,3.553556,6.0310726,0.034972034
88,0.8800000000000006,0.42343935,-0.120494835,-0.29873693,3.3341024,5.803678,-0.051159963
89,0.8900000000000006,0.42343935,-0.120494835,-0.29873693,3.170696,5.730527,-0.08857546
90,0.9000000000000006,0.3257507,-0.13378829,-0.33977592,3.170696,5.730527,-0.08857546
91,0.9100000000000006,0.13659334,-0.089700356,-0.5161886,2.9104674,5.587432,-0.011301007
92,0.9200000000000006,0.0026830835,-0.032197,-0.7112,2.855184,5.203961,0.09025534
93,0.9300000000000006,-0.07604102,0.009878625,-0.8075471,2.9394836,4.853172,0.17058411
94,0.9400000000000006,-0.123604774,0.05927175,-0.9592023,3.006526,4.361883,0.2499966
95,0.9500000000000006,-0.18598646,0.06652827,-1.1645802,2.9239066,3.7840047,0.27030787
96,0.9600000000000006,-0.2713573,0.010427438,-1.3226382,2.6942213,3.4811683,0.35078937
97,0.9700000000000006,-0.32605562,0.00085370836,-1.4556336,2.3547328,3.3426547,0.55481833
98,0.9800000000000006,-0.2967856,0.033599522,-1.6238753,2.0318906,3.1735976,0.68676525
99,0.9900000000000007,-0.3108108,0.12317792,-1.7858969,1.370018,1.9804251,0.6397286
100,1.0000000000000007,-0.2737355,0.23086715,-2.0032265,1.2458596,1.6036739,0.5671884
101,1.0100000000000007,-0.28824854,0.3035543,-2.1109767,0.82833326,0.20051652,0.2828306
102,1.0200000000000007,-0.31221333,0.3029445,-2.1000006,0.52778757,-0.5839872,0.13118331
103,1.0300000000000007,-0.31221333,0.3029445,-2.1000006,0.52778757,-0.5839872,0.13118331
104,1.0400000000000007,-0.37422916,0.24781933,-1.8572425,-0.44150287,-1.6119207,0.06078109
105,1.0500000000000007,-0.3682532,0.24580702,-1.7216858,-0.7476991,-1.8115209,0.10980303
106,1.0600000000000007,-0.3682532,0.24580702,-1.7216858,-0.7476991,-1.8115209,0.10980303
107,1.0700000000000007,-0.28202865,0.37868062,-1.2025092,-1.359786,-2.392301,0.376293
108,1.0800000000000007,-0.2660521,0.40831652,-1.1101258,-1.3637567,-2.5410466,0.40866885
109,1.0900000000000007,-0.23928225,0.42051232,-1.0154861,-1.328021,-2.7288878,0.4280638
110,1.1000000000000008,-0.207817,0.42728102,-0.94359165,-1.2681563,-2.8785498,0.43386704
111,1.1100000000000008,-0.15196009,0.42228076,-0.92541987,-1.2415836,-3.0702088,0.33093625
112,1.1200000000000008,-0.14885014,0.4047797,-0.92810297,-1.29198,-3.148705,0.25137106
113,1.1300000000000008,-0.15214302,0.38038805,-0.92785907,-1.4627168,-3.30753,0.121256754
114,1.1400000000000008,-0.14945993,0.34526405,-0.9342008,-1.6668985,-3.47002,0.05467244
115,1.1500000000000008,-0.040612124,0.2766625,-0.8090106,-2.4361305,-3.8777726,-0.036651913
116,1.1600000000000008,-0.0219525,0.24300198,-0.7036386,-2.8101327,-3.9718459,-0.074067414
117,1.1700000000000008,-0.0219525,0.24300198,-0.7036386,-2.8101327,-3.9718459,-0.074067414
118,1.1800000000000008,0.070187025,0.09000525,-0.26660094,-3.378543,-3.9095376,-0.1330159
119,1.1900000000000008,0.070187025,0.09000525,-0.26660094,-3.378543,-3.9095376,-0.1330159
120,1.2000000000000008,0.051649354,-0.02841629,-0.090919934,-3.4155004,-3.910912,-0.096516706
121,1.2100000000000009,0.07110171,-0.07451654,-0.05847902,-3.4454327,-4.1050143,0.031306844
122,1.2200000000000009,0.07110171,-0.07451654,-0.05847902,-3.5613444,-4.376544,0.10995574
123,1.2300000000000009,0.19824328,-0.09848136,-0.039819397,-3.749949,-4.8380527,0.06918049
124,1.2400000000000009,0.31739658,-0.10092052,0.04177073,-3.8119519,-5.1607423,0.00030543262
125,1.2500000000000009,0.5215548,-0.14830133,0.37581462,-3.8119519,-5.1607423,0.00030543262
126,1.260000000000001,0.5215548,-0.14830133,0.37581462,-3.8119519,-5.1607423,0.00030543262
127,1.270000000000001,0.5921687,-0.2151345,0.51813996,-3.7041342,-6.4456973,-0.2041817
128,1.280000000000001,0.6940039,-0.33056808,0.79248524,-3.5333972,-6.3493333,-0.20219639
129,1.290000000000001,0.6940039,-0.33056808,0.79248524,-3.5333972,-6.3493333,-0.20219639
130,1.300000000000001,0.7643739,-0.450819,0.69382095,-3.374725,-6.0150375,-0.129198
131,1.310000000000001,0.89078367,-0.49710217,0.61040145,-3.4869716,-5.207168,0.19715676
132,1.320000000000001,1.2346452,-0.5067369,0.59155893,-4.0781364,-5.2537465,0.17027868
133,1.330000000000001,1.3931301,-0.5207011,0.7906559,-4.4826818,-5.5509324,-0.20540343
134,1.340000000000001,1.2787331,-0.6223534,1.232267,-4.32798,-5.917146,-0.8402451
135,1.350000000000001,1.2787331,-0.6223534,1.232267,-4.32798,-5.917146,-0.8402451
136,1.360000000000001,1.1800689,-0.6274147,1.3589817,-3.8511999,-5.9460096,-0.8567385
137,1.370000000000001,1.3048322,-0.7741915,1.249951,-3.536299,-5.8656807,-0.75594574
138,1.380000000000001,1.3048322,-0.7741915,1.249951,-3.4535267,-5.5526123,-0.66981375
139,1.390000000000001,1.404777,-0.7901071,1.2540975,-3.4471126,-5.2681017,-0.6588182
140,1.400000000000001,1.5471635,-0.7900461,1.2979416,-3.122896,-4.9842024,-0.7619017
141,1.410000000000001,1.6411322,-0.7721182,1.5389313,-2.4468207,-5.329341,-0.90178984
142,1.420000000000001,1.6342417,-0.75181216,1.6408885,-1.7006488,-5.6419516,-0.94714653
143,1.430000000000001,1.6342417,-0.75181216,1.6408885,-1.7006488,-5.6419516,-0.94714653
144,1.440000000000001,1.6130819,-0.8174257,1.3047713,-0.7658723,-6.072917,-0.83184576
145,1.450000000000001,1.6347905,-0.88078314,1.1167115,-1.1076514,-6.056729,-0.8414669
146,1.460000000000001,1.5890561,-0.96719056,1.159214,-1.1076514,-6.056729,-0.8414669
147,1.470000000000001,1.5475904,-1.0223768,1.3485544,-3.3426547,-5.002834,-0.8561276
148,1.480000000000001,1.4983191,-1.0638425,1.5736895,-3.5633297,-4.7051897,-0.7890852
149,1.490000000000001,1.3811172,-1.0502442,1.7857751,-3.4255795,-4.4525967,-0.6032294
150,1.500000000000001,1.3325168,-0.97584957,1.8243748,-3.1125112,-4.478406,-0.47525316
151,1.5100000000000011,1.3051981,-0.90169895,1.7330279,-2.4669793,-4.7450485,-0.32925636
152,1.5200000000000011,1.2555611,-0.90206486,1.5765554,-2.3588562,-4.9725957,-0.30085114
153,1.5300000000000011,1.2572684,-0.88218564,1.5378336,-2.4674375,-5.052619,-0.2742785
154,1.5400000000000011,1.0955517,-0.88078314,1.677537,-2.7017043,-5.1088185,-0.15439619
155,1.5500000000000012,1.1236632,-0.81779164,1.8062029,-2.7353017,-5.157535,-0.003970624
156,1.5600000000000012,1.0237182,-0.74351895,2.0596323,-2.485,-5.2435145,0.24877487
157,1.5700000000000012,1.1081134,-0.56759405,2.1913474,-1.9701931,-5.1763196,0.5343544
158,1.5800000000000012,1.1768979,-0.4410623,2.0135932,-1.5161675,-4.843856,0.57742035
159,1.5900000000000012,1.1768979,-0.4410623,2.0135932,-1.3804027,-4.415945,0.4934264
160,1.6000000000000012,1.0562202,-0.34489816,1.8323629,-1.4013249,-4.015828,0.3924809
161,1.6100000000000012,0.9815816,-0.34239805,1.840839,-1.6861408,-2.8021915,0.18509217
162,1.6200000000000012,0.90334535,-0.3752658,1.9330397,-1.6384933,-2.3539693,0.22388211
163,1.6300000000000012,0.88694197,-0.40813357,2.0336552,-1.398576,-2.0496056,0.29520062
164,1.6400000000000012,0.85181797,-0.409658,2.0879266,-1.0071641,-1.7527251,0.41263947
165,1.6500000000000012,0.9034064,-0.39179114,2.0848167,-0.4361578,-1.4376713,0.59712076
166,1.6600000000000013,0.99328965,-0.35581344,2.0472536,-0.014966198,-1.158964,0.6733262
167,1.6700000000000013,1.1029302,-0.29044378,2.008044,0.50778174,-0.5662721,0.59956425
168,1.6800000000000013,1.1756175,-0.23458686,1.9531018,0.860251,0.0983493,0.4082107
169,1.6900000000000013,1.2012897,-0.23080614,1.8840733,0.9978484,0.6068946,0.29565877
170,1.7000000000000013,1.2476337,-0.25385627,1.7454067,0.9978484,0.6068946,0.29565877
171,1.7100000000000013,1.2915388,-0.26477155,1.6022276,1.1261301,2.1050417,0.0664316
172,1.7200000000000013,1.2922705,-0.28855342,1.4904528,1.1261301,2.1050417,0.0664316
173,1.7300000000000013,1.2922705,-0.28855342,1.4904528,1.1261301,2.1050417,0.0664316
174,1.7400000000000013,1.2922705,-0.28855342,1.4904528,1.1261301,2.1050417,0.0664316
175,1.7500000000000013,1.299527,-0.57820445,1.572043,0.9184359,3.3370042,-0.3633121
176,1.7600000000000013,1.299527,-0.57820445,1.572043,0.9184359,3.3370042,-0.3633121
177,1.7700000000000014,1.34642,-0.70260197,1.735833,1.282817,3.8313468,-0.28955013
178,1.7800000000000014,1.34642,-0.70260197,1.735833,1.282817,3.8313468,-0.28955013
179,1.7900000000000014,1.3927032,-0.7616908,1.7735791,1.5357152,4.1723623,-0.20005837
180,1.8000000000000014,1.5841779,-0.8215723,1.7163197,2.0118847,4.865389,0.008093964
181,1.8100000000000014,1.8460224,-0.8866371,1.5978981,2.1904101,5.486639,0.076358154
182,1.8200000000000014,1.9481014,-0.9081627,1.539724,2.2479842,5.82628,0.04718934
183,1.8300000000000014,1.9780421,-0.9504823,1.4971606,2.3269384,6.1184263,0.008552114
184,1.8400000000000014,1.9681636,-1.0150592,1.4472187,2.4926357,6.380793,0.019547688
185,1.8500000000000014,1.9340153,-1.0582324,1.4298396,2.678186,6.4417267,0.05467244
186,1.8600000000000014,1.9077333,-1.0700624,1.4321568,2.8283062,6.5037293,0.060322944
187,1.8700000000000014,1.8701092,-1.077258,1.3928862,3.0923526,6.5883346,0.05421429
188,1.8800000000000014,1.8701092,-1.077258,1.3928862,3.0923526,6.5883346,0.05421429
189,1.8900000000000015,1.7483947,-1.0557934,1.3178208,3.3096678,6.3664374,0.029626964
190,1.9000000000000015,1.7582734,-1.0319505,1.2883679,3.3370042,6.3384905,0.016493361
191,1.9100000000000015,1.7785794,-0.925115,1.1440302,3.1425962,6.4078236,-0.1441642
192,1.9200000000000015,1.7013798,-0.88011235,1.03939,2.667954,6.6411743,-0.35231653
193,1.9300000000000015,1.5348456,-0.8479763,1.050976,2.080149,7.2332554,-0.3266602
194,1.9400000000000015,1.3544083,-0.87663656,1.1231143,2.080149,7.2332554,-0.3266602
195,1.9500000000000015,1.2623907,-0.90669924,1.1819592,2.410016,7.5060067,0.31902438
196,1.9600000000000015,1.2247056,-0.91237026,1.3039784,3.122285,7.297549,0.68523806
197,1.9700000000000015,1.3324558,-0.85017157,1.3593476,3.122285,7.297549,0.68523806
198,1.9800000000000015,1.3998988,-0.7807163,1.3012345,3.8449385,7.0484686,0.8181013
199,1.9900000000000015,1.4538043,-0.69132084,1.1184189,4.60852,6.557638,0.7600691
200,2.0000000000000013,1.2234861,-0.5618011,0.76754475,5.0720143,5.8154373,0.41370848
201,2.010000000000001,1.1194556,-0.5146642,0.61534077,4.843245,5.6185856,0.4082107
202,2.020000000000001,1.1194556,-0.5146642,0.61534077,4.843245,5.6185856,0.4082107
203,2.0300000000000007,0.9992657,-0.34752026,0.39179114,3.8970149,5.9240184,0.50610185
204,2.0400000000000005,1.0429267,-0.30977416,0.39081547,3.6205983,6.0419154,0.49663344
205,2.0500000000000003,1.0834779,-0.23836756,0.39032766,3.336546,6.169281,0.3034473
206,2.06,1.050732,-0.21324414,0.3828882,3.385568,6.1984496,0.06872234
207,2.07,0.95603144,-0.21458568,0.2976393,3.6566393,6.1984496,-0.21090123
208,2.0799999999999996,0.76541054,-0.18976717,0.041038983,3.8325686,6.0359597,-0.32421672
209,2.0899999999999994,0.63979346,-0.19354787,-0.11951917,3.8084393,5.848882,-0.3565926
210,2.099999999999999,0.40953606,-0.18836464,-0.35191077,3.4735324,5.7077723,-0.30298916
211,2.109999999999999,0.22196417,-0.09213952,-0.5191766,2.6580274,5.5834613,0.0018325958
212,2.1199999999999988,0.22196417,-0.09213952,-0.5191766,2.6580274,5.5834613,0.0018325958
213,2.1299999999999986,0.21556135,-0.04530752,-0.49155307,2.450333,5.485875,0.044898596
214,2.1399999999999983,0.02262327,0.08287069,-0.72754246,2.5935812,4.7566547,-0.038026363
215,2.149999999999998,-0.05573496,0.080919355,-0.8871249,2.5227208,4.2971315,-0.089186326
216,2.159999999999998,-0.05573496,0.080919355,-0.8871249,2.5227208,4.2971315,-0.089186326
217,2.1699999999999977,-0.19458452,-0.00073175,-1.1423838,2.1513147,3.8030944,-0.0355829
218,2.1799999999999975,-0.275138,-0.02042802,-1.2136074,1.9732474,3.6396878,0.059253927
219,2.1899999999999973,-0.37502187,-0.028233355,-1.3163573,1.7397442,3.3848042,0.3023783
220,2.199999999999997,-0.37502187,-0.028233355,-1.3163573,1.7397442,3.3848042,0.3023783
221,2.209999999999997,-0.37502187,-0.028233355,-1.3163573,1.7397442,3.3848042,0.3023783
222,2.2199999999999966,-0.37502187,-0.028233355,-1.3163573,1.7397442,3.3848042,0.3023783
223,2.2299999999999964,-0.29001692,0.03823394,-1.7174172,1.4277447,2.3408356,0.55665094
224,2.239999999999996,-0.3413004,0.0658575,-1.824009,1.3561208,1.6896533,0.4549419
225,2.249999999999996,-0.4718568,0.07713865,-1.9872501,0.8739954,-0.074830994,0.37843102
226,2.259999999999996,-0.47002742,0.08110229,-1.9789569,0.30787608,-0.71791935,0.42149702
227,2.2699999999999956,-0.40063316,0.11842154,-1.8690724,-0.32620203,-1.133155,0.46944994
228,2.2799999999999954,-0.40063316,0.11842154,-1.8690724,-0.7713701,-1.3874277,0.46517387
229,2.289999999999995,-0.29343176,0.19238928,-1.5166129,-1.1759156,-1.6500998,0.4392121
230,2.299999999999995,-0.2728208,0.22458628,-1.4013013,-1.2791518,-1.7435621,0.41813725
231,2.3099999999999947,-0.27812597,0.26538134,-1.2839165,-1.5395331,-2.0760255,0.32375857
232,2.3199999999999945,-0.27477214,0.26214942,-1.2258642,-1.7513506,-2.3386977,0.23900102
233,2.3299999999999943,-0.2637349,0.26294217,-1.1570797,-1.8623754,-2.5286767,0.19624045
234,2.339999999999994,-0.2543441,0.27025968,-1.0249988,-1.9905044,-3.153439,0.09407325
235,2.349999999999994,-0.2057437,0.2089756,-0.92773706,-2.1180224,-3.598607,0.064599
236,2.3599999999999937,-0.18915738,0.16257046,-0.8485861,-2.2747095,-3.7862954,0.0936151
237,2.3699999999999934,-0.18915738,0.16257046,-0.8485861,-2.2747095,-3.7862954,0.0936151
238,2.3799999999999932,-0.1676927,0.09537142,-0.71351725,-2.4888177,-3.8973203,0.20280726
239,2.389999999999993,-0.12226323,0.033233646,-0.5836316,-2.7188084,-3.9752057,0.463494
240,2.399999999999993,-0.04463675,-0.03884373,-0.4050846,-2.78692,-4.035223,0.6603453
241,2.4099999999999926,0.034880083,-0.059576645,-0.3489838,-2.78692,-4.035223,0.6603453
242,2.4199999999999924,0.034880083,-0.059576645,-0.3489838,-2.8029552,-4.114483,0.7742717
243,2.429999999999992,0.32123825,-0.03195308,-0.19147459,-2.6998718,-4.617836,0.7684685
244,2.439999999999992,0.33904418,-0.014574022,-0.13250773,-2.5697575,-5.035973,0.6536258
245,2.4499999999999917,0.3409955,-0.056710627,-0.05549104,-2.5124888,-5.774051,0.6215554
246,2.4599999999999915,0.38593715,-0.10500612,0.0123177925,-2.6606236,-6.174015,0.699288
247,2.4699999999999913,0.54783684,-0.16952209,0.09171267,-3.0804408,-6.4730334,0.8373435
248,2.479999999999991,0.72613996,-0.22495215,0.23891638,-3.5011742,-6.5964284,0.8791878
249,2.489999999999991,0.9873137,-0.2669668,0.47063723,-3.8379135,-6.547406,0.7948884
250,2.4999999999999907,1.2154368,-0.3125792,0.84090275,-3.9029708,-6.2250223,0.40301836
251,2.5099999999999905,1.3706897,-0.28702894,1.0492685,-3.7126863,-6.0849814,0.1600467
252,2.5199999999999902,1.1544576,-0.20379238,0.98072803,-3.125492,-6.8085513,-0.42653665
253,2.52999999999999,1.1544576,-0.20379238,0.98072803,-3.125492,-6.8085513,-0.42653665
254,2.53999999999999,1.074392,-0.23861149,0.9131021,-4.043317,-7.6987348,-0.055588737
255,2.5499999999999896,1.255622,-0.5819852,1.0834168,-4.043317,-7.6987348,-0.055588737
256,2.5599999999999894,1.501734,-0.6224753,1.355323,-5.01612,-7.098254,0.64904433
257,2.569999999999989,1.6471082,-0.60723054,1.5822265,-4.738787,-6.3653684,0.65148777
258,2.579999999999989,1.6471082,-0.60723054,1.5822265,-4.738787,-6.3653684,0.65148777
259,2.5899999999999888,1.6724148,-0.56826484,1.6604627,-4.3395867,-5.956547,0.54473907
260,2.5999999999999885,1.6116184,-0.51063955,1.5188081,-3.3487632,-5.2711563,0.12232576
261,2.6099999999999883,1.4850867,-0.52594537,1.1117722,-2.1891882,-4.9765663,-0.399964
262,2.619999999999988,1.5217961,-0.5986935,0.6896134,-2.5509732,-5.5489473,-0.4195117
263,2.629999999999988,1.6149722,-0.70583385,0.54612947,-3.1554244,-6.1324763,-0.38545597
264,2.6399999999999877,1.6149722,-0.70583385,0.54612947,-4.565149,-7.1321573,-0.18600847
265,2.6499999999999875,1.7121731,-0.863526,0.869197,-4.9328895,-7.3198457,-0.10430524
266,2.6599999999999873,1.7869945,-1.0293283,1.4397181,-5.425705,-7.4252195,0.113162786
267,2.669999999999987,1.7960194,-1.0992714,1.6536331,-5.161353,-6.8082457,0.18692477
268,2.679999999999987,1.7960194,-1.0992714,1.6536331,-5.161353,-6.8082457,0.18692477
269,2.6899999999999866,1.7960194,-1.0992714,1.6536331,-5.161353,-6.8082457,0.18692477
270,2.6999999999999864,1.4792327,-0.960178,1.717905,-2.6984973,-5.0452886,-0.14355333
271,2.709999999999986,1.4325225,-0.957251,1.5069171,-1.8122845,-4.917771,-0.19486602
272,2.719999999999986,1.3929472,-0.94139636,1.3616039,-1.2660183,-5.081177,0.017256944
273,2.7299999999999858,1.3736167,-0.8887104,1.2633054,-1.1047498,-5.2505393,0.30772337
274,2.7399999999999856,1.5976541,-0.73894554,1.1896425,-1.0461067,-5.5530705,0.93447113
275,2.7499999999999853,1.5976541,-0.73894554,1.1896425,-1.2861768,-5.6262217,1.2391402
276,2.759999999999985,1.6852813,-0.64753777,1.3925812,-1.3468051,-5.61095,1.1249083
277,2.769999999999985,1.6852813,-0.64753777,1.3925812,-1.3468051,-5.61095,1.1249083
278,2.7799999999999847,1.6766832,-0.5928395,1.592105,-0.88315845,-5.2520666,0.7556403
279,2.7899999999999845,1.6349735,-0.4305739,1.8162646,-0.6533204,-4.922505,0.61254513
280,2.7999999999999843,1.6089964,-0.31038398,1.812118,-0.409127,-4.0485096,0.44776422
281,2.809999999999984,1.5967394,-0.27605268,1.750163,-0.56321776,-3.1575625,0.27687466
282,2.819999999999984,1.5967394,-0.27605268,1.750163,-0.56321776,-3.1575625,0.27687466
283,2.8299999999999836,1.4058138,-0.28995594,1.7382113,-1.3261884,-1.3066407,-0.27259862
284,2.8399999999999834,1.2933682,-0.3153233,1.7933974,-1.4979943,-0.68676525,-0.41706824
285,2.849999999999983,1.0900636,-0.36874104,1.9438938,-1.4512631,0.2790127,-0.4427246
286,2.859999999999983,0.9957898,-0.3802661,2.002251,-1.0458013,0.80664754,-0.29550606
287,2.869999999999983,0.9697517,-0.35380113,1.9602363,-0.5874997,1.1795808,-0.19013181
288,2.8799999999999826,0.9584705,-0.3468495,1.8596817,-0.15485434,1.5291485,-0.06291912
289,2.8899999999999824,1.1135406,-0.33861732,1.701258,0.6096435,2.0995438,0.20265454
290,2.899999999999982,1.2024482,-0.31983575,1.618631,0.9596693,2.461787,0.20830505
291,2.909999999999982,1.2024482,-0.31983575,1.618631,0.9596693,2.461787,0.20830505
292,2.9199999999999817,1.2851969,-0.29330978,1.5182594,1.1701124,2.7157543,0.14248432
293,2.9299999999999815,1.3369682,-0.29032183,1.4529507,1.449736,3.150385,-0.07895433
294,2.9399999999999813,1.3822758,-0.38746163,1.3186135,1.564426,3.3620496,-0.26633725
295,2.949999999999981,1.3651406,-0.44655046,1.3089179,1.6230689,3.4477234,-0.35934147
296,2.959999999999981,1.3197721,-0.5019805,1.2974538,1.6230689,3.4477234,-0.35934147
297,2.9699999999999807,1.2886118,-0.5464343,1.3240407,1.7997618,3.5083518,-0.47952923
298,2.9799999999999804,1.2476947,-0.5831438,1.3450174,1.8767308,3.5613444,-0.5158757
299,2.9899999999999802,1.2512316,-0.6551602,1.3712995,2.0054705,3.6987891,-0.51083606
300,2.99999999999998,1.317089,-0.7277254,1.4117897,2.1369593,3.9048033,-0.44226643
301,3.00999999999998,1.3922764,-0.7774234,1.4263027,2.265852,4.2951465,-0.34895676
302,3.0199999999999796,1.4685613,-0.81126684,1.3739216,2.29273,4.7201557,-0.27091873
303,3.0299999999999794,1.5088686,-0.8276703,1.349164,2.2605069,5.0362787,-0.20769419
304,3.039999999999979,1.6089964,-0.8207796,1.3267237,2.1620047,5.631414,-0.07620544
305,3.049999999999979,1.6556454,-0.80163217,1.2781844,2.1111503,5.996253,-0.015577064
306,3.0599999999999787,1.6828421,-0.7889485,1.2344623,2.0422752,6.319248,0.027947085
307,3.0699999999999785,1.6701584,-0.7812651,1.2283643,1.9998201,6.411794,0.04810564
308,3.0799999999999783,1.6430838,-0.77791125,1.2539147,2.0143282,6.4229426,0.060322944
309,3.089999999999978,1.5794214,-0.78358227,1.2884288,2.2104158,6.3876653,0.10094548
310,3.099999999999978,1.5794214,-0.78358227,1.2884288,2.2104158,6.3876653,0.10094548
311,3.1099999999999777,1.4345349,-0.77516717,1.2917217,2.486527,6.251595,0.19120082
312,3.1199999999999775,1.3811172,-0.75461715,1.2602564,2.6230555,6.0805526,0.33628133
313,3.1299999999999772,1.3749583,-0.6365615,1.1695803,2.6096163,5.940359,0.4783075
314,3.139999999999977,1.3892884,-0.5512517,1.150128,2.542421,5.981287,0.40561453
315,3.149999999999977,1.3038566,-0.48880902,1.1762881,2.5677722,5.954409,0.29336804
316,3.1599999999999766,1.3038566,-0.48880902,1.1762881,2.7253752,5.917452,0.20387627
317,3.1699999999999764,1.3038566,-0.48880902,1.1762881,2.7253752,5.917452,0.20387627
318,3.179999999999976,1.3038566,-0.48880902,1.1762881,2.7253752,5.917452,0.20387627
319,3.189999999999976,0.9049918,-0.43417168,1.0556713,3.3035593,5.4938164,0.14446963
320,3.1999999999999758,0.9049918,-0.43417168,1.0556713,3.3035593,5.4938164,0.14446963
321,3.2099999999999755,0.79029,-0.32745814,0.81096196,3.223994,5.1653237,0.3361286
322,3.2199999999999753,0.8323047,-0.2552588,0.75888574,3.223994,5.1653237,0.3361286
323,3.229999999999975,0.89102757,-0.20324357,0.7563856,2.5231788,5.137377,0.20463985
324,3.239999999999975,0.8597453,-0.17440042,0.8463298,2.3107505,5.14318,0.061391957
325,3.2499999999999747,0.7306524,-0.09573729,0.9859112,2.4097106,5.0555205,-0.20311269
326,3.2599999999999745,0.61576766,-0.10104248,0.92779803,2.5314255,4.896238,-0.27259862
327,3.2699999999999743,0.5543006,-0.12897095,0.8480983,2.4952319,4.7972775,-0.23090707
328,3.279999999999974,0.51344454,-0.14013013,0.7941927,2.271808,4.7983465,-0.15393804
329,3.289999999999974,0.4485018,-0.14726469,0.81413287,1.8420641,5.515044,0.111941054
330,3.2999999999999736,0.4485018,-0.14726469,0.81413287,1.8420641,5.515044,0.111941054
331,3.3099999999999734,0.40459678,-0.20428021,0.74955595,1.7154623,5.798791,0.24938573
332,3.319999999999973,0.30483487,-0.2626373,0.7019922,1.7693712,6.1656156,0.39263365
333,3.329999999999973,0.27416235,-0.32483602,0.65766037,2.143068,6.47227,0.6114761
334,3.3399999999999728,0.2617226,-0.43411067,0.5028952,3.4358115,6.6446867,1.1363621
335,3.3499999999999726,0.3170307,-0.4763083,0.3017249,4.384791,6.403548,1.5054774
336,3.3599999999999723,0.3170307,-0.4763083,0.3017249,5.11676,5.9582267,1.7737999
337,3.369999999999972,0.41697556,-0.38794947,-0.15006974,5.8873663,5.3177347,1.9695823
338,3.379999999999972,0.36892396,-0.28989497,-0.32477504,5.8873663,5.3177347,1.9695823
339,3.3899999999999717,0.33684894,-0.09653002,-0.749434,6.413627,4.2416954,1.7878499
340,3.3999999999999715,0.29257807,-0.00798827,-1.012681,6.159507,3.9635992,1.4178182
341,3.4099999999999713,0.29257807,-0.00798827,-1.012681,6.159507,3.9635992,1.4178182
342,3.419999999999971,0.21641506,0.04634417,-1.527711,4.7781878,3.8078284,0.27687466
343,3.429999999999971,0.12372673,0.013110521,-1.6944282,4.118301,3.82646,-0.016035212
344,3.4399999999999706,-0.085309856,-0.04268542,-1.9677368,2.6407704,3.8116465,-0.37018433
345,3.4499999999999704,-0.24257512,-0.05573496,-2.0764017,1.3671165,3.6619844,-0.43264532
346,3.45999999999997,-0.24257512,-0.05573496,-2.0764017,1.3671165,3.6619844,-0.43264532
347,3.46999999999997,-0.28977302,-0.06610142,-2.0294476,0.5141958,3.4955237,-0.36041048
348,3.47999999999997,-0.26361296,-0.005914979,-1.8535228,-0.4531093,1.806634,-0.10751228
349,3.4899999999999696,-0.23848954,0.046527103,-1.8119959,-0.4531093,1.806634,-0.10751228
350,3.4999999999999694,-0.23726994,0.082626775,-1.8090079,-0.46043968,1.1585059,-0.1207986
351,3.509999999999969,-0.275199,0.1413497,-1.8043127,-0.7110472,-0.4531093,-0.18661933
352,3.519999999999969,-0.32660443,0.21635409,-1.7229054,-0.7110472,-0.4531093,-0.18661933
353,3.5299999999999687,-0.32660443,0.21635409,-1.7229054,-0.7110472,-0.4531093,-0.18661933
354,3.5399999999999685,-0.32715324,0.25903952,-1.4948434,-1.081995,-1.4075862,-0.22174409
355,3.5499999999999683,-0.34861788,0.34544697,-1.1038449,-1.2620476,-2.1862867,-0.26251933
356,3.559999999999968,-0.3699606,0.41843903,-0.80968136,-1.1333077,-2.8750372,-0.21609358
357,3.569999999999968,-0.3699606,0.41843903,-0.80968136,-1.1333077,-2.8750372,-0.21609358
358,3.5799999999999677,-0.3492277,0.42026842,-0.7344331,-1.0352639,-3.0428724,-0.20738874
359,3.5899999999999674,-0.32526287,0.39313272,-0.72851807,-1.0096076,-2.8644998,-0.2312125
360,3.5999999999999672,-0.31587207,0.39294976,-0.79370487,-1.0096076,-2.8644998,-0.2312125
361,3.609999999999967,-0.32477504,0.36392367,-0.85724515,-1.2812898,-2.4917192,-0.3371976
362,3.619999999999967,-0.32477504,0.36392367,-0.85724515,-1.2812898,-2.4917192,-0.3371976
363,3.6299999999999666,-0.32776302,0.27056456,-0.9477383,-1.5312865,-2.434756,-0.3904956
364,3.6399999999999664,-0.32776302,0.27056456,-0.9477383,-1.9033034,-2.6410758,-0.40668353
365,3.649999999999966,-0.32776302,0.27056456,-0.9477383,-1.9033034,-2.6410758,-0.40668353
366,3.659999999999966,-0.32776302,0.27056456,-0.9477383,-2.3280075,-3.4810157,-0.3933972
367,3.6699999999999657,-0.16555844,0.14269125,-0.7111391,-2.463925,-3.816228,-0.39920044
368,3.6799999999999655,-0.13549572,0.10872585,-0.57497257,-2.6578746,-4.2581887,-0.3839288
369,3.6899999999999653,-0.13512984,0.082199916,-0.49569967,-2.7084239,-4.382958,-0.36163223
370,3.699999999999965,-0.10354263,0.02872119,-0.3553256,-2.87687,-4.7487135,-0.19242255
371,3.709999999999965,-0.060491335,-0.024696562,-0.23922127,-2.9698741,-4.877148,-0.039553523
372,3.7199999999999647,-0.0006707709,-0.07719963,-0.1478135,-3.0500503,-4.934722,0.13148874
373,3.7299999999999645,0.100005835,-0.143423,-0.032014064,-3.1575625,-4.8751626,0.3996586
374,3.7399999999999642,0.14537434,-0.15714332,0.020793896,-3.3684638,-4.9397616,0.5355761
375,3.749999999999964,0.2698938,-0.26336902,0.34995946,-3.4625368,-5.040402,0.6064365
376,3.759999999999964,0.36861908,-0.2637349,0.5286894,-3.3417382,-5.160437,0.65408397
377,3.7699999999999636,0.500517,-0.24391668,0.68522286,-3.0395126,-5.6124773,0.6774496
378,3.7799999999999634,0.5426536,-0.23897736,0.7645568,-3.0395126,-5.6124773,0.6774496
379,3.789999999999963,0.61918247,-0.23964813,1.0099369,-2.2687535,-6.196159,0.56489766
380,3.799999999999963,0.59863245,-0.25745404,0.97584957,-1.9355265,-6.062227,0.5749769
381,3.8099999999999627,0.5681429,-0.2464778,0.80193704,-1.9355265,-6.062227,0.5749769
382,3.8199999999999625,0.6617459,-0.25227082,0.6567457,-2.39337,-5.747173,0.96593064
383,3.8299999999999623,0.7179687,-0.28068712,0.65180635,-2.7151432,-5.6795197,1.0076222
384,3.839999999999962,0.93615216,-0.36050883,0.8703556,-3.684892,-5.2462635,0.98868537
385,3.849999999999962,1.0987227,-0.40868238,1.1722635,-4.1824417,-4.756502,0.81596327
386,3.8599999999999617,1.1405544,-0.40227956,1.4245343,-4.2109995,-4.390899,0.61483586
387,3.8699999999999615,1.0592082,-0.36514327,1.5947882,-3.7992764,-4.0590467,0.37018433
388,3.8799999999999613,1.0259744,-0.3246531,1.527711,-3.4761286,-3.9619193,0.27763826
389,3.889999999999961,1.0000583,-0.4001453,1.1390299,-3.3483052,-3.874871,0.088422745
390,3.899999999999961,1.0055465,-0.5642402,1.1849471,-3.729485,-3.8566978,-0.09621128
391,3.9099999999999606,1.0144495,-0.61174303,1.2397065,-3.729485,-3.8566978,-0.09621128
392,3.9199999999999604,1.0144495,-0.61174303,1.2397065,-3.588375,-4.081649,-0.055283304
393,3.92999999999996,1.0765262,-0.661502,1.2501949,-3.453374,-4.3284383,0.0016798794
394,3.93999999999996,1.2994051,-0.68156415,1.2512316,-3.2974505,-4.8546987,0.019394971
395,3.9499999999999598,1.4317908,-0.705529,1.2820871,-3.3541083,-5.3265924,-0.16249016
396,3.9599999999999596,1.5669817,-0.7232129,1.5731405,-3.4982727,-5.777411,-0.6814202
397,3.9699999999999593,1.507222,-0.7473607,1.7667494,-3.4982727,-5.777411,-0.6814202
398,3.979999999999959,1.4354496,-0.74723876,1.9249294,-3.1149547,-5.6422567,-0.8312349
399,3.989999999999959,1.3159915,-0.74748266,1.9324907,-2.6342037,-5.148372,-0.729984
400,3.9999999999999587,1.2468411,-0.7399822,1.8225454,-2.2359195,-4.791016,-0.50701815
401,4.009999999999959,1.1995212,-0.7179077,1.6614993,-1.9498819,-4.721072,-0.376293
402,4.019999999999959,1.1995212,-0.7179077,1.6614993,-1.9498819,-4.721072,-0.376293
403,4.0299999999999585,1.1414691,-0.6810763,1.5478952,-1.7314975,-4.911204,-0.2078469
404,4.039999999999958,1.0720748,-0.57155776,1.4990509,-1.7314975,-4.911204,-0.2078469
405,4.049999999999958,1.1134796,-0.49313855,1.5560055,-1.7745636,-4.9199085,-0.16401732
406,4.059999999999958,1.2760501,-0.44002566,1.6929647,-1.7562376,-4.7221413,-0.2087632
407,4.069999999999958,1.2608663,-0.45130682,1.7060751,-1.7415768,-4.402506,-0.38606682
408,4.079999999999957,1.1598847,-0.42136607,1.6496084,-1.9054414,-3.6641223,-0.57742035
409,4.089999999999957,0.9624342,-0.4853332,1.5451511,-2.323884,-3.1007519,-0.7622071
410,4.099999999999957,0.9624342,-0.4853332,1.5451511,-2.323884,-3.1007519,-0.7622071
411,4.109999999999957,0.799071,-0.556191,1.4966117,-2.6671903,-2.846632,-0.8374963
412,4.119999999999957,0.6641851,-0.4991755,1.7455286,-2.8428142,-2.801428,-0.82543164
413,4.129999999999956,0.72851807,-0.4455748,1.9087698,-2.8428142,-2.801428,-0.82543164
414,4.139999999999956,0.76528853,-0.45874628,1.9950554,-2.1951442,-1.9891299,-0.7780896
415,4.149999999999956,0.7168101,-0.4688688,1.972737,-1.6633861,-1.1421653,-0.64736444
416,4.159999999999956,0.7168101,-0.4688688,1.972737,-1.6633861,-1.1421653,-0.64736444
417,4.1699999999999555,0.56619155,-0.47612533,1.8310215,-1.2466233,-0.55939984,-0.40485093
418,4.179999999999955,0.5491174,-0.4533801,1.8168743,-0.5123632,0.033292156,0.18203785
419,4.189999999999955,0.6137553,-0.36660674,1.8349851,0.33444872,-0.0035124752,0.59742624
420,4.199999999999955,0.74540937,-0.30245668,1.8389488,0.8733846,-0.051159963,0.67073005
421,4.209999999999955,0.74540937,-0.30245668,1.8389488,1.4135422,0.13637567,0.6391178
422,4.2199999999999545,0.9582876,-0.24141651,1.6224728,1.4135422,0.13637567,0.6391178
423,4.229999999999954,0.99322873,-0.22348866,1.528077,1.6595682,0.75777835,0.47540587
424,4.239999999999954,1.0103029,-0.21671996,1.3225162,1.4618006,1.4581354,0.28527406
425,4.249999999999954,0.9745691,-0.25336844,1.2125098,1.1304061,1.975691,0.14523321
426,4.259999999999954,0.9120045,-0.27916262,1.1922036,0.88346386,2.2707388,0.09483683
427,4.269999999999953,0.8718801,-0.29105356,1.217754,0.7160868,2.361147,0.10430524
428,4.279999999999953,0.8707825,-0.29959065,1.2875751,0.6443101,2.2777638,0.12751812
429,4.289999999999953,0.9365181,-0.30843264,1.4466697,0.7150178,2.0474675,0.07880162
430,4.299999999999953,1.0936614,-0.35843554,1.6521086,0.7805331,2.0027218,0.034055736
431,4.3099999999999525,1.1440911,-0.42776886,1.6710122,1.2234104,2.6798658,-0.34880406
432,4.319999999999952,1.1440911,-0.42776886,1.6710122,1.2234104,2.6798658,-0.34880406
433,4.329999999999952,1.1083573,-0.6363786,1.5674696,1.2501358,3.8541017,-0.38163805
434,4.339999999999952,1.0789654,-0.6624777,1.5470414,1.2507466,4.1911464,-0.30100384
435,4.349999999999952,1.0789654,-0.6624777,1.5470414,1.3006848,4.6448665,-0.010231993
436,4.3599999999999515,1.0912222,-0.74303114,1.4881966,1.3744467,4.865389,0.33185256
437,4.369999999999951,1.1537868,-0.74443364,1.524906,1.4428637,4.942969,0.4298964
438,4.379999999999951,1.2602564,-0.7304085,1.5920441,1.629483,5.059186,0.6067419
439,4.389999999999951,1.4183145,-0.7179687,1.668512,1.907274,5.209917,0.68737614
440,4.399999999999951,1.5227108,-0.7324208,1.6712562,2.1691825,5.4081426,0.67347896
441,4.40999999999995,1.5734456,-0.76004434,1.6345465,2.463314,5.6198077,0.5888741
442,4.41999999999995,1.5197837,-0.7507755,1.5797873,2.463314,5.6198077,0.5888741
443,4.42999999999995,1.3680067,-0.72120064,1.5301503,2.789058,5.6300397,0.3669773
444,4.43999999999995,1.3164793,-0.72784734,1.5204545,2.86282,5.61095,0.34315357
445,4.4499999999999496,1.2534268,-0.74327505,1.5516759,2.9965994,5.516724,0.44226643
446,4.459999999999949,1.2771477,-0.6952235,1.5849705,3.1870368,5.548489,0.51053065
447,4.469999999999949,1.3048931,-0.6229022,1.4469746,3.486208,5.82628,0.5222898
448,4.479999999999949,1.2778794,-0.582473,1.3482493,3.5091155,5.8862977,0.5025894
449,4.489999999999949,1.2778794,-0.582473,1.3482493,3.4077117,5.898973,0.43951756
450,4.4999999999999485,1.279282,-0.4994194,1.2512316,3.4077117,5.898973,0.43951756
451,4.509999999999948,1.2135464,-0.4019137,1.2347672,3.2307136,5.8157425,0.23808473
452,4.519999999999948,1.0848193,-0.3579477,1.2139122,3.1435125,5.7528234,0.14004086
453,4.529999999999948,0.9616415,-0.3459348,1.2403163,3.0517302,5.651878,0.04444045
454,4.539999999999948,0.80559576,-0.3319706,1.3409319,2.9142854,5.1407366,-0.07788532
455,4.549999999999947,0.72345686,-0.34502012,1.5210034,2.9390254,4.927239,-0.035277467
456,4.559999999999947,0.72345686,-0.34502012,1.5210034,3.3469307,4.791016,0.11835514
457,4.569999999999947,0.796205,-0.36715558,1.6253387,3.9212968,4.722752,0.2359467
458,4.579999999999947,0.8214504,-0.40526757,1.5534443,4.1303654,4.7801733,0.23945917
459,4.589999999999947,0.8232187,-0.4622221,1.261781,4.839122,5.3705745,0.19013181
460,4.599999999999946,0.8232187,-0.4622221,1.261781,4.839122,5.3705745,0.19013181
461,4.609999999999946,0.8232187,-0.4622221,1.261781,4.839122,5.3705745,0.19013181
462,4.619999999999946,0.8735875,-0.442038,0.6392446,4.9814534,5.760612,0.04505131
463,4.629999999999946,0.77992356,-0.3328243,0.23348923,4.2832346,6.0658917,-0.15500705
464,4.6399999999999455,0.696687,-0.28782168,0.14635001,3.7197113,6.3464317,-0.29794952
465,4.649999999999945,0.61784095,-0.25556368,0.013110521,3.412904,6.451806,-0.34193182
466,4.659999999999945,0.51246893,-0.24422157,-0.17964463,3.21758,6.3907194,-0.36987892
467,4.669999999999945,0.43953782,-0.23611133,-0.25306356,3.0833423,6.231131,-0.4569272
468,4.679999999999945,0.43953782,-0.23611133,-0.25306356,3.0650163,6.095519,-0.48334712
469,4.689999999999944,0.24178241,-0.24013597,-0.4739911,2.9582677,5.16624,-0.29184088
470,4.699999999999944,0.24178241,-0.24013597,-0.4739911,2.9582677,5.16624,-0.29184088
471,4.709999999999944,0.17372964,-0.21922012,-0.547349,2.935513,4.5452957,0.00045814895
472,4.719999999999944,0.12958074,-0.17354672,-0.6424155,2.8851166,4.370435,0.05955936
473,4.729999999999944,0.10884781,-0.054210484,-0.93743277,2.7215574,4.108374,0.09025534
474,4.739999999999943,0.093907915,0.0041465834,-1.0854901,2.4448354,3.7965274,0.051923547
475,4.749999999999943,0.05719846,0.05213719,-1.2506827,2.1533,3.535688,-0.022296581
476,4.759999999999943,-0.0131715005,0.04847844,-1.3302605,1.7741054,3.2255213,-0.13347405
477,4.769999999999943,-0.09811548,0.046405144,-1.3637381,1.5743525,2.9544497,-0.18753563
478,4.7799999999999425,-0.21306121,0.03823394,-1.4173998,1.4688255,2.4888177,-0.17027868
479,4.789999999999942,-0.2617226,0.04116094,-1.4788668,1.4217888,2.0320432,-0.12110403
480,4.799999999999942,-0.3409955,0.027806502,-1.6871107,1.2600623,1.511128,-0.06612616
481,4.809999999999942,-0.38855925,0.025672229,-1.8044956,0.9120218,1.0135782,-0.007483099
482,4.819999999999942,-0.43276918,0.04622221,-1.8319972,0.49693888,0.48731774,0.03604105
483,4.8299999999999415,-0.4490506,0.048661377,-1.8131545,0.17547104,0.041080687,0.08231409
484,4.839999999999941,-0.43014705,0.042624436,-1.747602,-0.116675265,-0.40500367,0.1337795
485,4.849999999999941,-0.41837808,0.08793196,-1.6339977,-0.3839288,-0.889878,0.17440203
486,4.859999999999941,-0.41752437,0.14128873,-1.5571641,-0.5751296,-1.3756685,0.20586158
487,4.869999999999941,-0.3995355,0.16836348,-1.5144786,-0.6919576,-1.6595682,0.21975878
488,4.87999999999994,-0.3167258,0.248795,-1.3625795,-0.9007208,-2.0697641,0.21273382
489,4.88999999999994,-0.28355312,0.28727287,-1.2857457,-1.1024591,-2.398257,0.16508633
490,4.89999999999994,-0.26708874,0.29824913,-1.2350111,-1.4679092,-2.87687,0.03390302
491,4.90999999999994,-0.26708874,0.29824913,-1.2350111,-1.6476563,-3.0488284,-0.0032070426
492,4.9199999999999395,-0.22818404,0.272272,-1.0637206,-1.8493946,-3.2588134,-0.008552114
493,4.929999999999939,-0.20031658,0.25653934,-1.0086564,-1.9888245,-3.4477234,-0.0013744468
494,4.939999999999939,-0.15348457,0.22354963,-0.895723,-2.129018,-3.7048976,0.0061086523
495,4.949999999999939,-0.11604336,0.17580293,-0.8099863,-2.2508857,-3.9704714,0.038331795
496,4.959999999999939,-0.066650234,0.15189911,-0.7614469,-2.3289237,-4.19924,0.06078109
497,4.9699999999999385,-0.005061271,0.13598356,-0.6709538,-2.3979516,-4.4693956,0.06505715
498,4.979999999999938,0.01689123,0.12317792,-0.6150359,-2.4141395,-4.589125,0.06795876
499,4.989999999999938,0.044453815,-0.019452354,-0.45655105,-2.467743,-4.9678617,0.08017606
500,4.999999999999938,0.044453815,-0.019452354,-0.45655105,-2.5766296,-5.200296,0.16126843
501,5.009999999999938,0.044453815,-0.019452354,-0.45655105,-2.5766296,-5.200296,0.16126843
502,5.019999999999937,0.044453815,-0.019452354,-0.45655105,-3.0349312,-5.3356023,0.5699373
503,5.029999999999937,0.17098558,-0.21232945,-0.21952501,-3.2085698,-5.3291883,0.7058548
504,5.039999999999937,0.2622714,-0.23080614,-0.07311402,-3.4800992,-5.3890533,0.9221011
505,5.049999999999937,0.345386,-0.24611193,0.0078053335,-3.7345247,-5.7395372,1.111622
506,5.0599999999999365,0.50478554,-0.28904125,0.13031249,-4.0248384,-6.3319235,1.255328
507,5.069999999999936,0.81584024,-0.31715265,0.49045542,-4.2707114,-7.191411,1.2707524
508,5.079999999999936,0.81584024,-0.31715265,0.49045542,-4.2707114,-7.191411,1.2707524
509,5.089999999999936,0.81584024,-0.31715265,0.49045542,-4.2707114,-7.191411,1.2707524
510,5.099999999999936,0.90505284,-0.31337196,1.1793981,-3.0185907,-7.217831,0.46273044
511,5.1099999999999355,0.8598672,-0.4255736,0.78657025,-2.8296804,-5.766721,0.3857614
512,5.119999999999935,0.87938064,-0.49551672,0.6799177,-3.1897855,-5.6698985,0.4615087
513,5.129999999999935,1.0732334,-0.65979457,0.73894554,-4.583322,-5.5917077,0.6921103
514,5.139999999999935,1.2229372,-0.6718685,1.0861,-5.320789,-5.629276,0.75487673
515,5.149999999999935,1.2229372,-0.6718685,1.0861,-5.320789,-5.629276,0.75487673
516,5.159999999999934,1.3312362,-0.62015814,1.4939287,-4.8511863,-5.5804067,0.41874814
517,5.169999999999934,1.3022101,-0.46478322,1.8231552,-4.3208027,-5.4066157,0.17547104
518,5.179999999999934,1.1907402,-0.46807608,1.6144844,-3.2490394,-4.856226,-0.31673363
519,5.189999999999934,1.1265901,-0.5251526,1.4322786,-2.9848404,-4.5045204,-0.4804455
520,5.199999999999934,1.0282917,-0.7213226,0.93615216,-3.1740558,-4.128533,-0.46593747
521,5.209999999999933,1.0959176,-0.80596167,0.85401326,-3.7490327,-4.2148175,-0.2845105
522,5.219999999999933,1.2815992,-0.8215723,1.1095159,-4.253149,-4.3143883,-0.24816401
523,5.229999999999933,1.2815992,-0.8215723,1.1095159,-4.253149,-4.3143883,-0.24816401
524,5.239999999999933,1.2991002,-0.82614577,1.3163573,-3.8875463,-4.437936,-0.3848451
525,5.2499999999999325,1.2509876,-0.83065826,1.355384,-2.8435776,-4.8953214,-0.4729624
526,5.259999999999932,1.2112292,-0.8695629,1.3047713,-2.3811526,-5.1951036,-0.38927388
527,5.269999999999932,1.2111073,-0.8570622,1.2598295,-1.921782,-5.593235,-0.081397794
528,5.279999999999932,1.3418466,-0.7894973,1.2626957,-1.6154331,-5.8971405,0.2948952
529,5.289999999999932,1.4449624,-0.71174884,1.288124,-1.4575244,-6.0568814,0.5363397
530,5.299999999999931,1.6166797,-0.5794241,1.3394074,-1.3133603,-6.1642413,0.744492
531,5.309999999999931,1.6166797,-0.5794241,1.3394074,-1.2258538,-6.1184263,0.78022766
532,5.319999999999931,1.9852378,-0.37740007,1.4629512,-1.1366675,-5.7812285,0.6068946
533,5.329999999999931,2.0456073,-0.3108718,1.425693,-1.2070698,-4.9733596,0.06612616
534,5.339999999999931,1.8915129,-0.3213602,1.3428832,-1.3692545,-4.5219297,-0.23396139
535,5.34999999999993,1.7277228,-0.3702045,1.3242846,-1.6922494,-4.0216312,-0.528093
536,5.35999999999993,1.5989957,-0.42740297,1.3607501,-2.0218112,-3.705356,-0.72112644
537,5.36999999999993,1.5270404,-0.49472398,1.4797815,-2.2860105,-3.4535267,-0.9024007
538,5.37999999999993,1.376056,-0.5324701,1.5425291,-2.3860397,-3.3603697,-1.118647
539,5.3899999999999295,1.1693364,-0.5864367,1.6824763,-2.2745566,-3.2391129,-1.267698
540,5.399999999999929,1.0467074,-0.63863486,1.738394,-2.2745566,-3.2391129,-1.267698
541,5.409999999999929,0.9427989,-0.6796738,1.7705302,-2.2745566,-3.2391129,-1.267698
542,5.419999999999929,0.78986317,-0.6324759,1.8843783,-2.017077,-2.7989845,-1.0392345
543,5.429999999999929,0.7627884,-0.5774118,1.9277955,-1.8037324,-2.3663392,-0.81321436
544,5.4399999999999284,0.76321524,-0.5266161,1.9510283,-1.5774068,-1.8629863,-0.5852089
545,5.449999999999928,0.76321524,-0.5266161,1.9510283,-1.1808025,-1.0775663,-0.30085114
546,5.459999999999928,0.73595756,-0.4718568,1.9120629,-0.32543847,0.20295998,0.26328292
547,5.469999999999928,0.78327745,-0.43929392,1.7903484,-0.32543847,0.20295998,0.26328292
548,5.479999999999928,0.86944103,-0.39935255,1.6289365,-0.13545936,0.40943244,0.3895793
549,5.489999999999927,0.92810297,-0.35398406,1.5349066,0.79427755,1.1643091,0.851088
550,5.499999999999927,1.0242062,-0.31270117,1.4505724,0.79427755,1.1643091,0.851088
551,5.509999999999927,1.1248218,-0.27129632,1.4072163,1.393689,1.3193163,0.81031275
552,5.519999999999927,1.1248218,-0.27129632,1.4072163,1.393689,1.3193163,0.81031275
553,5.5299999999999265,1.1908622,-0.2388554,1.3655674,1.7432567,1.19134,0.27229318
554,5.539999999999926,1.1814104,-0.22104947,1.1708001,1.6698002,1.2185235,0.022143865
555,5.549999999999926,1.1397007,-0.27062553,1.1305537,1.6698002,1.2185235,0.022143865
556,5.559999999999926,1.1397007,-0.27062553,1.1305537,1.6698002,1.2185235,0.022143865
557,5.569999999999926,1.1397007,-0.27062553,1.1305537,0.9682214,2.0874794,-0.3297145
558,5.5799999999999255,1.0650622,-0.3699606,1.1485426,0.65011334,2.6639833,-0.33276883
559,5.589999999999925,1.0233524,-0.4045358,1.2475119,0.5671884,2.9211576,-0.31230485
560,5.599999999999925,1.053781,-0.4750887,1.3705069,0.5713117,3.2922583,-0.24297164
561,5.609999999999925,1.0755506,-0.5152739,1.4106921,0.7611381,3.5268304,-0.1301143
562,5.619999999999925,1.1833007,-0.5793021,1.4447185,0.91583973,3.5975382,-0.053603426
563,5.629999999999924,1.1833007,-0.5793021,1.4447185,1.2493721,3.791335,0.04795292
564,5.639999999999924,1.2238518,-0.63326865,1.419473,1.6713274,4.272697,0.15027285
565,5.649999999999924,1.2757452,-0.6777834,1.4244124,1.6713274,4.272697,0.15027285
566,5.659999999999924,1.3323338,-0.7002848,1.4335593,2.0476203,4.499786,0.24587326
567,5.6699999999999235,1.3323338,-0.7002848,1.4335593,2.0476203,4.499786,0.24587326
568,5.679999999999923,1.4738665,-0.7158345,1.469293,2.4636195,4.8820353,0.2359467
569,5.689999999999923,1.4738665,-0.7158345,1.469293,2.4636195,4.8820353,0.2359467
570,5.699999999999923,1.4555118,-0.73046947,1.3649577,2.6650524,5.1615057,0.20051652
571,5.709999999999923,1.4555118,-0.73046947,1.3649577,2.7853928,5.292842,0.19226983
572,5.7199999999999225,1.3539205,-0.7133343,1.2740988,3.061351,5.5266504,0.23945917
573,5.729999999999922,1.2987343,-0.7100414,1.1877522,3.1312952,5.615073,0.32513303
574,5.739999999999922,1.2565367,-0.6794299,1.0962834,3.10457,5.6236253,0.46563202
575,5.749999999999922,1.3139791,-0.5968641,1.0554274,2.9982793,5.524207,0.5522222
576,5.759999999999922,1.366726,-0.5404583,1.0571959,2.9098566,5.4027977,0.53023106
577,5.769999999999921,1.3545302,-0.45087993,1.0574398,2.637869,5.2164836,0.3652974
578,5.779999999999921,1.3483104,-0.4250248,1.0750628,2.5173757,5.18029,0.2948952
579,5.789999999999921,1.1966553,-0.45039213,1.1956794,1.9995147,5.194798,0.009010263
580,5.799999999999921,1.074331,-0.4911872,1.3226382,1.7605137,5.299409,-0.10903945
581,5.809999999999921,0.8911496,-0.55253226,1.396118,1.6012305,5.49962,-0.15745051
582,5.81999999999992,0.66314846,-0.6064988,1.4149606,1.5373951,5.966932,0.037110064
583,5.82999999999992,0.6630875,-0.6024132,1.4689882,1.5373951,5.966932,0.037110064
584,5.83999999999992,0.6630875,-0.6024132,1.4689882,1.7107282,6.082996,0.8868236
585,5.84999999999992,0.6885158,-0.52997,1.5311869,1.7107282,6.082996,0.8868236
586,5.8599999999999195,0.7365064,-0.49002862,1.5736284,2.1216877,5.9087467,1.0064005
587,5.869999999999919,0.7372991,-0.40435287,1.5389313,2.9442177,5.6016345,1.1082623
588,5.879999999999919,0.76675206,-0.35599637,1.3322729,4.8585167,4.954728,1.1792754
589,5.889999999999919,0.8446834,-0.36435053,1.0532322,5.438075,4.799568,1.1285735
590,5.899999999999919,0.8446834,-0.36435053,1.0532322,5.438075,4.799568,1.1285735
591,5.909999999999918,0.989387,-0.17812014,0.35209373,5.3679786,5.0587277,0.8516989
592,5.919999999999918,0.9867649,-0.073175006,0.11104306,4.5343,5.5643716,0.5311473
593,5.929999999999918,0.9236514,0.019391375,0.07561417,3.7169623,6.0005293,0.19517145
594,5.939999999999918,0.8054128,0.054759294,0.0851879,3.2798882,6.139043,-0.010079277
595,5.949999999999918,0.6669901,0.028660208,0.10122541,3.2798882,6.139043,-0.010079277
596,5.959999999999917,0.6669901,0.028660208,0.10122541,3.037222,6.1068196,-0.16798794
597,5.969999999999917,0.4228905,-0.041953668,0.12982465,3.2433891,5.711132,-0.33261612
598,5.979999999999917,0.354167,-0.07744354,0.002866021,3.4440582,5.53673,-0.26343563
599,5.989999999999917,0.34245902,-0.08835881,-0.040002335,3.4956763,5.468771,-0.21380283
600,5.9999999999999165,0.26617405,-0.10445731,-0.3466056,3.365104,5.271767,-0.053603426
601,6.009999999999916,0.21440275,-0.09238344,-0.44276974,3.1881058,5.1644077,-0.0041233404
602,6.019999999999916,0.19738956,-0.09903017,-0.4974071,3.0908253,5.0576587,-0.0018325958
603,6.029999999999916,0.067625895,-0.1030548,-0.5810095,3.2213979,4.4113636,-0.11453723
604,6.039999999999916,0.067625895,-0.1030548,-0.5810095,3.2213979,4.4113636,-0.11453723
605,6.0499999999999154,0.067625895,-0.1030548,-0.5810095,3.2213979,4.4113636,-0.11453723
606,6.059999999999915,-0.2511122,-0.08994427,-1.0395119,3.3848042,2.75882,0.09392053
607,6.069999999999915,-0.26501545,-0.07774844,-1.4672197,3.3848042,2.75882,0.09392053
608,6.079999999999915,-0.26501545,-0.07774844,-1.4672197,2.7881417,1.8277088,0.27137688
609,6.089999999999915,-0.2695279,-0.0064028124,-1.6986356,2.3391557,1.4585935,0.22968534
610,6.099999999999914,-0.28940713,0.029270003,-1.7777257,1.9375118,1.0361801,0.1432479
611,6.109999999999914,-0.2992248,0.042197585,-1.8257164,1.704925,0.7464773,0.06704246
612,6.119999999999914,-0.34550798,0.06006448,-1.9399302,1.1866057,0.09850202,-0.09132435
613,6.129999999999914,-0.36227724,0.04756375,-2.0115807,0.56169057,-0.40607268,-0.23014349
614,6.1399999999999135,-0.41630477,0.04524654,-2.0170078,-0.06887506,-0.6934848,-0.32238412
615,6.149999999999913,-0.45283127,0.047746688,-1.9218804,-0.7273878,-0.89904094,-0.3746131
616,6.159999999999913,-0.48777235,0.06421106,-1.7499192,-0.7273878,-0.89904094,-0.3746131
617,6.169999999999913,-0.51557887,0.08427321,-1.5150884,-1.794264,-1.5477798,-0.35537085
618,6.179999999999913,-0.54332435,0.09043211,-1.3711776,-1.881465,-1.7056885,-0.3210097
619,6.1899999999999125,-0.55344695,0.17013188,-0.98194754,-1.9237673,-2.3037255,-0.07422013
620,6.199999999999912,-0.55344695,0.17013188,-0.98194754,-1.8315268,-2.626415,0.08552113
621,6.209999999999912,-0.55344695,0.17013188,-0.98194754,-1.7150042,-2.9049697,0.21227567
622,6.219999999999912,-0.4622221,0.2022679,-0.86102587,-1.5960382,-3.1639764,0.31688634
623,6.229999999999912,-0.40197468,0.20708527,-0.84395164,-1.5604553,-3.3516648,0.34590244
624,6.239999999999911,-0.34825203,0.2177566,-0.8118157,-1.7391334,-3.684892,0.32543847
625,6.249999999999911,-0.31154257,0.20623155,-0.822548,-1.7391334,-3.684892,0.32543847
626,6.259999999999911,-0.2648935,0.15549688,-0.7780942,-1.977829,-3.8621955,0.33444872
627,6.269999999999911,-0.24166043,0.09470064,-0.6503428,-2.9286406,-4.046219,0.4025602
628,6.2799999999999105,-0.1923283,0.059820563,-0.5154569,-3.2695036,-4.0555344,0.4738787
629,6.28999999999991,-0.14500846,0.02134271,-0.29666364,-3.524998,-4.054618,0.5737552
630,6.29999999999991,-0.14500846,0.02134271,-0.29666364,-3.524998,-4.054618,0.5737552
631,6.30999999999991,-0.05189327,-0.008902958,-0.036160648,-3.5081992,-4.163963,0.77381355
632,6.31999999999991,0.022501312,-0.027623562,0.048661377,-3.3965635,-4.279111,0.90087354
633,6.3299999999999095,0.08250481,-0.037868064,0.09762765,-3.3140967,-4.3968554,0.98639464
634,6.339999999999909,0.17147341,-0.056039855,0.17866896,-3.2528574,-4.574617,1.0253373
635,6.349999999999909,0.22007383,-0.06768687,0.25385627,-3.1952834,-4.7256536,1.0154108
636,6.359999999999909,0.28495565,-0.10116444,0.31825027,-3.1227431,-4.924032,1.0080804
637,6.369999999999909,0.37892455,-0.14775252,0.35581344,-3.1516066,-5.1696,1.0297661
638,6.379999999999908,0.4520386,-0.19092578,0.42874455,-3.3302846,-5.3598843,1.0526736
639,6.389999999999908,0.4978339,-0.21964696,0.49630946,-3.3302846,-5.3598843,1.0526736
640,6.399999999999908,0.61082834,-0.23013538,0.5175302,-3.3302846,-5.3598843,1.0526736
641,6.409999999999908,0.80425423,-0.260503,0.5403364,-3.7058141,-5.4208183,1.0370965
642,6.419999999999908,1.124151,-0.29556602,0.8451103,-4.117232,-5.7694697,0.63087106
643,6.429999999999907,1.1330539,-0.28794363,1.0736603,-4.0011673,-5.6654696,0.3193298
644,6.439999999999907,1.1330539,-0.28794363,1.0736603,-4.0011673,-5.6654696,0.3193298
645,6.449999999999907,1.0534151,-0.33617815,1.0759164,-3.7572794,-4.9419,-0.01740966
646,6.459999999999907,0.8985281,-0.49655336,0.91163856,-3.8078284,-4.7737594,0.02687807
647,6.4699999999999065,0.9385304,-0.61924344,0.8832832,-4.0712643,-4.7945285,0.27855456
648,6.479999999999906,1.0184741,-0.66430706,0.9606658,-4.1856484,-4.868138,0.46043968
649,6.489999999999906,1.1930574,-0.6693683,1.0048757,-4.1856484,-4.868138,0.46043968
650,6.499999999999906,1.3618478,-0.6664413,0.98902106,-4.0853143,-4.9333477,0.5494733
651,6.509999999999906,1.5647255,-0.7132733,0.90145504,-4.173584,-5.1686835,0.24770586
652,6.519999999999905,1.5647255,-0.7132733,0.90145504,-4.173584,-5.1686835,0.24770586
653,6.529999999999905,1.5647255,-0.7132733,0.90145504,-4.173584,-5.1686835,0.24770586
654,6.539999999999905,1.7233932,-0.9387134,1.1163456,-5.2493176,-5.5881953,-0.6198755
655,6.549999999999905,1.6188749,-1.0297552,1.3386147,-5.3415585,-5.1973944,-0.84956086
656,6.559999999999905,1.5289917,-1.0527443,1.4705737,-5.1976995,-4.928003,-0.8791878
657,6.569999999999904,1.472647,-1.0533541,1.5499076,-5.1101933,-4.8456883,-0.8729264
658,6.579999999999904,1.472647,-1.0533541,1.5499076,-5.0043607,-4.767956,-0.8578075
659,6.589999999999904,1.3480664,-1.0159129,1.4595363,-2.3322835,-4.7707047,-0.08735373
660,6.599999999999904,1.5405167,-0.9329813,1.2684277,-2.3322835,-4.7707047,-0.08735373
661,6.6099999999999035,1.6725366,-0.8494398,1.2287912,-1.9193386,-5.197547,0.027030786
662,6.619999999999903,1.8368145,-0.7355917,1.3040395,-1.5632042,-5.998391,0.08399397
663,6.629999999999903,1.8368145,-0.7355917,1.3040395,-1.4569136,-6.3847637,0.009162978
664,6.639999999999903,1.8782803,-0.6356468,1.3894713,-1.5377005,-6.008929,-0.474795
665,6.649999999999903,1.8782803,-0.6356468,1.3894713,-1.5377005,-6.008929,-0.474795
666,6.659999999999902,1.6294852,-0.6625996,1.378556,-1.9620992,-4.7904053,-0.9279043
667,6.669999999999902,1.6294852,-0.6625996,1.378556,-2.1574233,-4.142583,-1.054048
668,6.679999999999902,1.3338584,-0.8097424,1.3389196,-2.3367124,-3.5323284,-1.1531608
669,6.689999999999902,1.1462865,-0.84206134,1.3510544,-2.434298,-3.264311,-1.1365148
670,6.699999999999902,1.1090281,-0.8250481,1.4153265,-2.4912612,-3.2754595,-1.0291553
671,6.709999999999901,1.0446951,-0.76559347,1.671744,-2.3860397,-3.5199583,-0.8880454
672,6.719999999999901,1.082929,-0.73431116,1.7833357,-2.1491766,-3.4903314,-0.79733187
673,6.729999999999901,1.0668305,-0.7295548,1.929259,-1.7773124,-3.163213,-0.7315111
674,6.739999999999901,0.9728616,-0.70467526,1.9548093,-1.4839444,-2.6740627,-0.6423248
675,6.7499999999999005,0.90310144,-0.6681487,1.9400523,-1.2286028,-2.0387628,-0.5112942
676,6.7599999999999,0.8215723,-0.63759816,1.884744,-0.94714653,-1.1933253,-0.32574388
677,6.7699999999999,0.7760209,-0.59521765,1.8311435,-0.6724099,-0.4185954,-0.12293663
678,6.7799999999999,0.7634592,-0.5461904,1.7919338,0.11056661,0.3462079,0.2837469
679,6.7899999999999,0.78839964,-0.50570023,1.7560781,0.11056661,0.3462079,0.2837469
680,6.7999999999998995,0.88877136,-0.42843962,1.5946052,1.0132728,0.50732356,0.52732944
681,6.809999999999899,0.9731666,-0.39795005,1.5224669,1.2928963,0.60063326,0.5458081
682,6.819999999999899,1.0662817,-0.3588624,1.4145337,1.4897476,0.853226,0.4885395
683,6.829999999999899,1.1229314,-0.3620943,1.3581281,1.4897476,0.853226,0.4885395
684,6.839999999999899,1.1929355,-0.37880257,1.3366024,1.5851953,1.4590516,0.35338554
685,6.849999999999898,1.2630615,-0.40087706,1.293795,1.6722436,1.875509,0.2041817
686,6.859999999999898,1.2925144,-0.39837688,1.2827578,1.7133243,2.0379992,0.0936151
687,6.869999999999898,1.2984904,-0.43514732,1.1950698,1.7259997,2.329229,-0.15103643
688,6.879999999999898,1.2612932,-0.47801572,1.1348224,1.6019942,2.4686592,-0.2855795
689,6.8899999999998975,1.2308645,-0.50161463,1.1187238,1.6019942,2.4686592,-0.2855795
690,6.899999999999897,1.2114122,-0.5469831,1.1419569,1.0439687,2.7969992,-0.4005749
691,6.909999999999897,1.2184857,-0.58332676,1.191228,0.8651379,2.9509373,-0.3791946
692,6.919999999999897,1.2506827,-0.6567457,1.3308704,0.6646214,3.33059,-0.31215215
693,6.929999999999897,1.2529389,-0.6988823,1.4220343,0.6591236,3.78599,-0.19914207
694,6.9399999999998965,1.2664154,-0.74278724,1.5172226,0.81153446,4.1204386,-0.07971791
695,6.949999999999896,1.3192234,-0.77108157,1.5653962,1.1716396,4.462218,0.09987647
696,6.959999999999896,1.3736777,-0.7741305,1.5820435,1.9540052,4.991227,0.29825497
697,6.969999999999896,1.49277,-0.7671179,1.5616765,1.9540052,4.991227,0.29825497
698,6.979999999999896,1.5492368,-0.79285115,1.4850867,2.404671,5.318651,0.3107777
699,6.989999999999895,1.609972,-0.86309916,1.3511155,2.71102,5.464648,0.3109304
700,6.999999999999895,1.609972,-0.86309916,1.3511155,2.71102,5.464648,0.3109304
701,7.009999999999895,1.609972,-0.86309916,1.3511155,2.71102,5.464648,0.3109304
702,7.019999999999895,1.6966234,-0.8380368,1.2503169,3.1317534,5.34782,0.36545014
703,7.0299999999998946,1.6966234,-0.8380368,1.2503169,3.1801646,5.45915,0.3371976
704,7.039999999999894,1.718088,-0.7594345,1.2476337,3.2491922,5.9537983,0.23151793
705,7.049999999999894,1.7097338,-0.749434,1.1991553,3.2826371,6.0967407,0.18463401
706,7.059999999999894,1.6323513,-0.7482754,1.0896977,3.2661438,6.2599945,0.09101892
707,7.069999999999894,1.5289917,-0.70626074,1.0145714,3.1903965,6.265492,0.04520403
708,7.0799999999998935,1.4134362,-0.66028243,0.99237496,3.0978503,6.206391,0.026419923
709,7.089999999999893,1.2804406,-0.62564623,0.9609098,3.0111074,6.1570635,0.050549097
710,7.099999999999893,1.2208639,-0.59351027,0.9077358,3.0111074,6.1570635,0.050549097
711,7.109999999999893,1.1937282,-0.5324701,0.8511472,2.5256224,6.083454,0.21548271
712,7.119999999999893,1.1334808,-0.45911217,0.74004316,1.9552269,6.3239822,0.23900102
713,7.129999999999892,0.8868201,-0.41392657,0.5674112,1.2544118,6.660111,0.23808473
714,7.139999999999892,0.8868201,-0.41392657,0.5674112,0.14004086,7.241349,0.2507602
715,7.149999999999892,0.5330799,-0.49466303,0.99518,-1.1436925,8.244543,0.601855
716,7.159999999999892,0.5330799,-0.49466303,0.99518,-0.8539896,8.270351,1.0891727
717,7.169999999999892,0.40795064,-0.5505809,1.2640982,-0.12415836,7.9449134,1.551445
718,7.179999999999891,0.39374247,-0.5739969,1.4313639,-0.12415836,7.9449134,1.551445
719,7.189999999999891,0.39374247,-0.5739969,1.4313639,-0.12415836,7.9449134,1.551445
720,7.199999999999891,0.51246893,-0.47527164,1.150677,3.9778018,4.8902817,2.4915667
721,7.209999999999891,0.53167737,-0.43630594,0.9529824,4.776966,3.9613085,2.375655
722,7.2199999999998905,0.54497087,-0.33233646,0.8319997,5.330563,3.1025846,2.0425806
723,7.22999999999989,0.50679785,-0.26800343,0.7596785,5.5762835,2.8215866,1.6818647
724,7.23999999999989,0.50679785,-0.26800343,0.7596785,5.7286944,2.9843822,1.3665055
725,7.24999999999989,0.48826018,-0.23922127,0.64119595,5.7286944,2.9843822,1.3665055
726,7.25999999999989,0.4668565,-0.21958598,0.28111395,5.546809,3.7368155,0.9024007
727,7.269999999999889,0.4103898,-0.19129165,0.10329871,5.126534,4.0828705,0.68294734
728,7.279999999999889,0.40819457,-0.15049659,0.055003207,4.908913,4.5156684,0.46074513
729,7.289999999999889,0.39886475,-0.097871564,-0.06951625,4.860655,4.703204,0.30069843
730,7.299999999999889,0.32062846,-0.07860215,-0.2991028,4.687169,4.7847548,0.12308934
731,7.309999999999889,0.21415883,-0.051649354,-0.49344343,4.3992987,4.893794,-0.024740042
732,7.319999999999888,0.117689796,-0.047868647,-0.65089166,4.3992987,4.893794,-0.024740042
733,7.329999999999888,0.03158721,0.037929043,-0.9203586,3.8768563,4.9965725,-0.060322944
734,7.339999999999888,0.03158721,0.037929043,-0.9203586,3.2982142,4.887991,-0.048716504
735,7.349999999999888,-0.044453815,0.112872444,-1.109638,2.7189612,4.6352453,-0.16890424
736,7.3599999999998875,-0.15708233,0.10018878,-1.1992773,2.1620047,4.0784416,-0.33765575
737,7.369999999999887,-0.30654228,0.091102876,-1.3088568,1.943315,3.6682458,-0.32268956
738,7.379999999999887,-0.30654228,0.091102876,-1.3088568,1.943315,3.6682458,-0.32268956
739,7.389999999999887,-0.40002334,0.11238461,-1.4860014,1.7235563,3.0201178,-0.21135938
740,7.399999999999887,-0.4036211,0.110311314,-1.6624141,1.2803736,2.0302107,-0.009315695
741,7.4099999999998865,-0.30337137,0.13805683,-1.7109535,0.8396343,1.2841915,0.0777326
742,7.419999999999886,-0.25306356,0.13378829,-1.767908,0.4364632,0.83001316,0.06001751
743,7.429999999999886,-0.25306356,0.13378829,-1.767908,0.033444874,0.5563455,0.013286319
744,7.439999999999886,-0.28233355,0.14128873,-1.817545,-0.4886922,0.16722436,-0.06918049
745,7.449999999999886,-0.28715092,0.1683025,-1.7438213,-0.72616607,-0.124769226,-0.11713341
746,7.459999999999885,-0.2880046,0.21025616,-1.5844827,-1.0070114,-0.7993172,-0.22876903
747,7.469999999999885,-0.28532153,0.20220692,-1.5049659,-1.129948,-1.1943942,-0.27305678
748,7.479999999999885,-0.28532153,0.20220692,-1.5049659,-1.129948,-1.1943942,-0.27305678
749,7.489999999999885,-0.27684543,0.20104831,-1.4244733,-1.4065173,-1.9956968,-0.30207285
750,7.4999999999998845,-0.2759917,0.242941,-1.2860507,-1.4732542,-2.2511911,-0.3051272
751,7.509999999999884,-0.2759917,0.242941,-1.2860507,-1.6184875,-2.637869,-0.30451632
752,7.519999999999884,-0.25531977,0.21580528,-1.1412861,-1.9314032,-3.258508,-0.23426682
753,7.529999999999884,-0.1855596,0.18281554,-0.9311519,-1.9314032,-3.258508,-0.23426682
754,7.539999999999884,-0.1855596,0.18281554,-0.9311519,-2.0528126,-3.5949419,-0.18096884
755,7.5499999999998835,-0.041221917,0.13323948,-0.7058948,-2.1120665,-3.8820486,-0.14966199
756,7.559999999999883,-0.041221917,0.13323948,-0.7058948,-2.1621575,-4.215581,-0.14370605
757,7.569999999999883,0.0026830835,0.03652652,-0.5575935,-2.2655466,-4.649448,-0.13148874
758,7.579999999999883,0.0026830835,0.03652652,-0.5575935,-2.2655466,-4.649448,-0.13148874
759,7.589999999999883,-0.0005488125,-0.012500729,-0.49557772,-2.3806946,-4.8539352,-0.08246681
760,7.599999999999882,0.038599815,-0.12482436,-0.34178823,-2.4706445,-4.988784,-0.021227567
761,7.609999999999882,0.102445,-0.16464376,-0.26611307,-2.7679832,-5.4733524,0.34468073
762,7.619999999999882,0.22879384,-0.16019227,-0.18446198,-2.7679832,-5.4733524,0.34468073
763,7.629999999999882,0.32697028,-0.13110521,-0.12342183,-3.2104023,-6.176306,0.68600166
764,7.6399999999998816,0.5408852,-0.10384752,0.06500379,-3.5555413,-6.6850038,0.66523224
765,7.649999999999881,0.77730143,-0.15006974,0.3895959,-3.8957932,-7.185608,0.43020186
766,7.659999999999881,0.910297,-0.19366984,0.6697342,-3.9646683,-7.33191,0.043829583
767,7.669999999999881,0.91340697,-0.28288236,0.9568851,-3.872122,-7.187746,-0.24617869
768,7.679999999999881,0.82913375,-0.3521547,1.0923808,-3.6706893,-6.8277936,-0.39202276
769,7.6899999999998805,0.70241904,-0.42148802,1.1314075,-3.3250923,-6.220135,-0.38255435
770,7.69999999999988,0.5892417,-0.50002915,1.0371946,-2.9856038,-5.612324,-0.15897769
771,7.70999999999988,0.59631526,-0.53405553,0.8846858,-2.810591,-5.343391,0.12843442
772,7.71999999999988,0.7215055,-0.58546096,0.7272375,-2.9022207,-5.469229,0.46853364
773,7.72999999999988,0.8846858,-0.611682,0.7544952,-3.162144,-5.7366357,0.6392705
774,7.739999999999879,1.079941,-0.6334516,0.8844418,-3.492011,-5.915619,0.7174612
775,7.749999999999879,1.320016,-0.65345275,1.170678,-3.6654968,-5.692348,0.5748242
776,7.759999999999879,1.32587,-0.61875564,1.1897645,-3.470478,-5.4605246,0.43188173
777,7.769999999999879,1.3564816,-0.6438181,1.0695746,-3.3516648,-5.351485,0.28909197
778,7.779999999999879,1.3564816,-0.6438181,1.0695746,-3.3516648,-5.351485,0.28909197
779,7.789999999999878,1.384593,-0.7502267,0.95664114,-3.4016032,-5.3104043,0.18219055
780,7.799999999999878,1.4543532,-0.8566963,0.91480947,-3.5388951,-5.4406714,0.15974127
781,7.809999999999878,1.516369,-0.90694314,0.93017626,-3.8498254,-6.391941,0.33673948
782,7.819999999999878,1.8292531,-1.0262794,0.9581657,-4.011552,-6.7030244,0.33322698
783,7.8299999999998775,1.9826157,-1.079758,1.156226,-4.2314634,-7.1854553,0.23839016
784,7.839999999999877,2.0392654,-1.0737822,1.3935568,-4.1352525,-7.4403386,0.032070424
785,7.849999999999877,2.0474975,-1.065733,1.589483,-3.930307,-7.425831,-0.05222898
786,7.859999999999877,2.0039585,-1.0285357,1.7318083,-3.3690746,-7.112151,-0.06719518
787,7.869999999999877,2.0086539,-0.88736886,1.8124837,-2.828917,-6.6582785,-0.033750303
788,7.879999999999876,1.9902381,-0.7926682,1.7492484,-2.828917,-6.6582785,-0.033750303
789,7.889999999999876,1.9559679,-0.7114439,1.6134478,-2.215761,-5.6193495,-0.032986723
790,7.899999999999876,1.9504187,-0.64619625,1.4478284,-2.2128594,-5.1897583,-0.06414085
791,7.909999999999876,1.9424914,-0.6463792,1.2576953,-2.6190848,-4.674188,-0.39293906
792,7.919999999999876,1.7602856,-0.6989432,1.1839105,-3.0143147,-4.4768786,-0.7058548
793,7.929999999999875,1.607106,-0.7233959,1.3069664,-3.372129,-4.5382705,-1.0259482
794,7.939999999999875,1.5607008,-0.7680326,1.592105,-3.3959527,-4.6729665,-1.1722504
795,7.949999999999875,1.5291137,-0.79742455,1.7495533,-3.2626312,-4.694347,-1.3242031
796,7.959999999999875,1.5291137,-0.79742455,1.7495533,-3.2626312,-4.694347,-1.3242031
797,7.9699999999998745,1.5291137,-0.79742455,1.7495533,-2.1484132,-3.941608,-1.3741413
798,7.979999999999874,1.1247607,-0.69882125,1.9689564,-1.8968893,-3.5492797,-1.3326025
799,7.989999999999874,1.0362799,-0.68357646,1.887976,-1.8254181,-3.0604348,-1.2301298
800,7.999999999999874,0.87535596,-0.6637582,1.9801766,-1.8686367,-2.144748,-0.88438016
801,8.009999999999874,0.81748676,-0.6502209,2.054937,-1.6530013,-1.5279267,-0.6603453
802,8.019999999999873,0.7308353,-0.61808485,2.0731697,-1.1650727,-0.7637343,-0.27748555
803,8.029999999999873,0.7308353,-0.61808485,2.0731697,-0.5891795,-0.1881465,0.19226983
804,8.039999999999873,0.76431286,-0.51015174,1.9298687,-0.257327,0.11224649,0.44516805
805,8.049999999999873,0.8711484,-0.44447714,1.8312043,0.3295618,0.59742624,0.8382598
806,8.059999999999873,0.99237496,-0.37008256,1.6985137,0.6363689,0.90102625,0.98944896
807,8.069999999999872,1.0878685,-0.29959065,1.6143014,0.8544478,1.1612549,1.0375546
808,8.079999999999872,1.2109243,-0.22598879,1.5429559,1.047023,1.3503176,0.9596693
809,8.089999999999872,1.2861116,-0.19781642,1.5136249,1.1598804,1.4362969,0.82909685
810,8.099999999999872,1.363982,-0.20232888,1.4818548,1.2753339,1.5806139,0.59315014
811,8.109999999999872,1.3980085,-0.25251475,1.4209366,1.3547463,1.8419114,0.2939789
812,8.119999999999871,1.3923982,-0.30776188,1.3791049,1.3836098,2.0882428,0.048563786
813,8.129999999999871,1.3442857,-0.3632529,1.3500787,1.3771957,2.3160956,-0.18127427
814,8.139999999999871,1.2753793,-0.4269761,1.3560548,1.3599387,2.417194,-0.3052799
815,8.14999999999987,1.2035459,-0.49124816,1.3624575,1.3785702,2.627026,-0.39904773
816,8.15999999999987,1.1792151,-0.5142983,1.372702,1.3817772,2.6697865,-0.39920044
817,8.16999999999987,1.179825,-0.59113204,1.4092286,1.3929255,3.0411925,-0.26358834
818,8.17999999999987,1.2651348,-0.6036328,1.4614267,1.3729197,3.3243287,-0.14996742
819,8.18999999999987,1.516064,-0.66412413,1.5592374,1.2403619,3.9704714,-0.11301007
820,8.19999999999987,1.5636888,-0.71388316,1.607106,1.2403619,3.9704714,-0.11301007
821,8.20999999999987,1.5636888,-0.71388316,1.607106,1.180497,4.2899537,-0.13179417
822,8.21999999999987,1.5848485,-0.84078074,1.6605237,1.1982121,5.3863044,-0.00045814895
823,8.229999999999869,1.6459496,-0.9754838,1.6272291,1.1982121,5.3863044,-0.00045814895
824,8.239999999999869,1.7074167,-1.0221329,1.5509441,1.6655241,6.6303315,0.57848936
825,8.249999999999869,1.7398577,-1.0317676,1.5269793,1.8086193,6.733873,0.68783426
826,8.259999999999868,1.8038857,-1.0372556,1.5145396,2.1164954,6.8714705,0.8359691
827,8.269999999999868,1.8713896,-1.0275599,1.5311869,2.346028,6.9085803,0.9228647
828,8.279999999999868,1.9493212,-0.9928628,1.5675914,2.6755898,6.87651,0.97402465
829,8.289999999999868,1.9959092,-0.9570071,1.5666767,2.9439123,6.8757463,0.95737857
830,8.299999999999867,2.00219,-0.9350546,1.5566761,3.1923819,6.949203,0.90117896
831,8.309999999999867,2.0044463,-0.9104799,1.4633172,3.5248451,7.0951996,0.82802784
832,8.319999999999867,2.0016413,-0.90615046,1.4471576,3.6033413,7.100545,0.81504697
833,8.329999999999867,1.8976108,-0.8266336,1.3696531,3.7479637,7.1136785,0.7669413
834,8.339999999999867,1.8277285,-0.7764478,1.3585548,3.8873937,7.2046976,0.68798697
835,8.349999999999866,1.7405893,-0.76291037,1.3384928,4.040721,7.227605,0.6215554
836,8.359999999999866,1.5692378,-0.73546976,1.2521462,4.529566,7.1341424,0.5369505
837,8.369999999999866,1.3968499,-0.6860156,0.9106629,4.9449544,6.9252267,0.3764457
838,8.379999999999866,1.3297118,-0.6665023,0.7333355,4.801859,6.803359,0.28680122
839,8.389999999999866,1.264525,-0.6043645,0.6363786,4.801859,6.803359,0.28680122
840,8.399999999999865,1.264525,-0.6043645,0.6363786,4.5349107,6.650337,0.2490803
841,8.409999999999865,1.130005,-0.4072189,0.66138005,4.050342,6.366285,0.10399981
842,8.419999999999865,1.0162787,-0.42392716,0.6926014,3.881285,6.307642,-0.0032070426
843,8.429999999999865,1.0162787,-0.42392716,0.6926014,3.881285,6.307642,-0.0032070426
844,8.439999999999864,0.75760514,-0.49710217,0.72016394,4.137085,6.419277,0.08597928
845,8.449999999999864,0.75760514,-0.49710217,0.72016394,4.137085,6.419277,0.08597928
846,8.459999999999864,0.6721124,-0.60905993,0.6066208,4.385096,6.498079,0.3061962
847,8.469999999999864,0.62076795,-0.6020473,0.3234335,4.933806,6.3374214,0.74097955
848,8.479999999999864,0.6594287,-0.5798509,0.19196242,5.105459,6.045886,0.88270026
849,8.489999999999863,0.64119595,-0.56137425,0.05506419,5.195867,5.878051,0.9243918
850,8.499999999999863,0.58143634,-0.49600452,-0.10372557,5.265964,5.673411,0.95249164
851,8.509999999999863,0.51039565,-0.44423324,-0.24544115,5.2571063,5.545282,0.9431759
852,8.519999999999863,0.22873287,-0.21385394,-0.7861435,4.5387287,4.6299005,0.7626653
853,8.529999999999863,0.22873287,-0.21385394,-0.7861435,4.5387287,4.6299005,0.7626653
854,8.539999999999862,0.17769329,-0.0734799,-0.98865527,3.7502544,4.302171,0.51068336
855,8.549999999999862,0.086285524,0.01750102,-1.0140835,2.771343,4.120897,0.13942999
856,8.559999999999862,0.086285524,0.01750102,-1.0140835,2.0409007,4.090201,-0.18066339
857,8.569999999999862,-0.011647021,0.0039026667,-0.9627391,1.5001323,4.0521746,-0.44211373
858,8.579999999999862,-0.14287418,-0.040124293,-0.922127,1.1042917,3.883423,-0.61391956
859,8.589999999999861,-0.25001457,-0.07311402,-0.9627391,1.0684034,3.7501018,-0.59406644
860,8.599999999999861,-0.3971573,-0.084578104,-1.2125708,1.0601566,3.1403055,-0.27229318
861,8.60999999999986,-0.3567891,-0.079089984,-1.4008744,0.93599826,2.628706,0.06918049
862,8.61999999999986,-0.31154257,-0.04116094,-1.5183203,0.81321436,2.198504,0.26221392
863,8.62999999999986,-0.29690757,-0.000365875,-1.5893,0.75777835,1.834581,0.3735441
864,8.63999999999986,-0.29690757,-0.000365875,-1.5893,0.68569624,1.2472341,0.46593747
865,8.64999999999986,-0.22678153,0.11384811,-1.8044345,0.627664,0.9868528,0.47769663
866,8.65999999999986,-0.16848545,0.18336436,-1.9748104,0.17944166,0.1001819,0.36468655
867,8.66999999999986,-0.14854525,0.28147984,-1.9752982,-0.3100141,-0.48670688,0.1965459
868,8.67999999999986,-0.14854525,0.28147984,-1.9752982,-0.7506007,-0.89736104,0.03390302
869,8.68999999999986,-0.12799528,0.30379823,-1.8983424,-1.1560625,-1.2310462,-0.14095716
870,8.699999999999859,-0.23922127,0.25592956,-1.4135581,-1.7776178,-1.8272507,-0.3284928
871,8.709999999999859,-0.29215118,0.23946518,-1.279343,-1.7776178,-1.8272507,-0.3284928
872,8.719999999999859,-0.29215118,0.23946518,-1.279343,-1.9147571,-2.0282254,-0.28680122
873,8.729999999999858,-0.27605268,0.25239277,-1.0893319,-2.1025982,-2.453693,-0.069791354
874,8.739999999999858,-0.27605268,0.25239277,-1.0893319,-2.1025982,-2.453693,-0.069791354
875,8.749999999999858,-0.25678328,0.27849188,-1.0339018,-2.084883,-3.2042937,-0.03359759
876,8.759999999999858,-0.20330454,0.27062553,-0.8631601,-2.1025982,-3.598607,-0.052839845
877,8.769999999999857,-0.16775368,0.24623388,-0.79577816,-2.1025982,-3.598607,-0.052839845
878,8.779999999999857,-0.14921603,0.22135438,-0.68613756,-2.4249823,-4.026671,-0.08002335
879,8.789999999999857,-0.13360536,0.1972676,-0.6193654,-2.5276077,-4.0566034,-0.075594574
880,8.799999999999857,-0.08872469,0.15037462,-0.4502092,-2.820365,-4.081649,-0.04062254
881,8.809999999999857,-0.09213952,0.13512984,-0.33849534,-3.0066788,-4.114483,0.0047342055
882,8.819999999999856,-0.10378654,0.09463967,-0.17147341,-3.0066788,-4.114483,0.0047342055
883,8.829999999999856,-0.097017854,0.053173836,-0.04268542,-3.304781,-4.1905355,0.19165897
884,8.839999999999856,-0.047075916,0.022135438,0.053173836,-3.317762,-4.1781654,0.2930626
885,8.849999999999856,0.10646963,0.020976834,0.15415533,-3.2119296,-4.272697,0.3417791
886,8.859999999999856,0.13659334,0.048112564,0.19507235,-3.0663908,-4.5049787,0.26175576
887,8.869999999999855,0.18610841,0.082199916,0.24288003,-2.869692,-5.3841662,0.021838432
888,8.879999999999855,0.23403804,0.05372265,0.2476364,-2.869692,-5.3841662,0.021838432
889,8.889999999999855,0.27269882,0.011281146,0.30654228,-3.0109549,-5.755114,-0.04352415
890,8.899999999999855,0.34319076,-0.12897095,0.5087492,-3.0109549,-5.755114,-0.04352415
891,8.909999999999854,0.44185504,-0.27696738,0.52423793,-3.0192015,-5.5730762,0.07925977
892,8.919999999999854,0.44185504,-0.27696738,0.52423793,-3.0192015,-5.5730762,0.07925977
893,8.929999999999854,0.5876562,-0.3252019,0.5477149,-3.3334916,-5.286428,0.44058657
894,8.939999999999854,0.7188834,-0.31709167,0.6834545,-3.3724344,-5.449071,0.40683624
895,8.949999999999854,0.7660813,-0.3354464,0.65296495,-3.264311,-5.7596955,0.35002577
896,8.959999999999853,0.7660813,-0.3354464,0.65296495,-3.264311,-5.7596955,0.35002577
897,8.969999999999853,0.8271825,-0.40856043,0.6812593,-3.322038,-6.0724587,0.3484986
898,8.979999999999853,1.0056075,-0.5388119,0.7567515,-3.5963163,-6.0167174,0.47250426
899,8.989999999999853,1.1264682,-0.5904003,0.6899183,-3.9344304,-5.775731,0.59421915
900,8.999999999999853,1.2496461,-0.62351197,0.6252804,-3.9344304,-5.775731,0.59421915
901,9.009999999999852,1.5491147,-0.717054,0.6577213,-5.186704,-5.786268,0.44318274
902,9.019999999999852,1.7307717,-0.775716,0.860538,-5.797722,-6.022673,0.095294975
903,9.029999999999852,1.7307717,-0.775716,0.860538,-5.797722,-6.022673,0.095294975
904,9.039999999999852,1.8199842,-0.8617576,1.0588423,-5.9579215,-6.711882,-0.5206099
905,9.049999999999851,1.943467,-0.9598121,1.5471635,-5.639661,-6.880939,-0.67088276
906,9.059999999999851,1.8467542,-1.0005461,1.6441202,-4.658458,-6.8859787,-0.8677341
907,9.069999999999851,1.7961414,-1.0381703,1.5563713,-4.0430117,-6.7576966,-0.9231701
908,9.07999999999985,1.78547,-1.0414633,1.4574021,-3.470631,-6.58696,-0.9825767
909,9.08999999999985,1.7267472,-1.0548787,1.3409929,-3.1876476,-6.40706,-1.0096076
910,9.09999999999985,1.6972332,-1.0767092,1.2786112,-3.057686,-6.300006,-0.9665415
911,9.10999999999985,1.6817445,-1.080246,1.2721474,-2.8440359,-6.2810693,-0.66553766
912,9.11999999999985,1.7374184,-1.0446341,1.334651,-2.5691464,-6.4166813,-0.35369098
913,9.12999999999985,1.8341923,-0.9104799,1.4777082,-1.9602666,-6.4805164,0.13729197
914,9.13999999999985,1.8341923,-0.9104799,1.4777082,-1.9602666,-6.4805164,0.13729197
915,9.14999999999985,1.8976108,-0.8404149,1.4808791,-1.7363845,-6.3653684,0.23609942
916,9.15999999999985,1.8520594,-0.7603492,1.3074543,-1.9851593,-5.517793,-0.025809057
917,9.169999999999849,1.6670485,-0.71199274,1.4014843,-1.9851593,-5.517793,-0.025809057
918,9.179999999999849,1.6384493,-0.6765029,1.5674084,-2.4237607,-5.0006957,-0.061239243
919,9.189999999999849,1.5355164,-0.6905891,1.6328391,-2.44285,-4.893489,-0.066737026
920,9.199999999999848,1.4059356,-0.67083186,1.8091301,-2.2892175,-4.7482557,0.0693332
921,9.209999999999848,1.387398,-0.6177799,1.9749933,-1.9304869,-4.760473,0.10354166
922,9.219999999999848,1.4320347,-0.5305188,2.1917133,-1.9304869,-4.760473,0.10354166
923,9.229999999999848,1.3813001,-0.48960173,2.2701325,-1.048703,-4.191452,-0.1647809
924,9.239999999999847,1.2695253,-0.45911217,2.26812,-0.7699956,-3.2707253,-0.24510968
925,9.249999999999847,1.062928,-0.40673104,2.1348195,-0.6658431,-1.5441146,-0.20021108
926,9.259999999999847,1.0329871,-0.40459678,2.1028056,-0.6794349,-1.2414309,-0.16615535
927,9.269999999999847,0.95267755,-0.3942913,1.9829817,-0.75991637,0.7703011,0.27290404
928,9.279999999999847,0.97694725,-0.38709575,1.8929764,-0.6702719,1.3680327,0.50961435
929,9.289999999999846,1.0239011,-0.39727926,1.8312043,-0.5488624,1.7461584,0.6261369
930,9.299999999999846,1.0551835,-0.36563107,1.7531509,-0.11407909,2.187203,0.6907359
931,9.309999999999846,1.0897588,-0.3193479,1.6779027,0.3735441,2.1111503,0.77366084
932,9.319999999999846,1.1574455,-0.3006273,1.6232654,0.7788532,1.9159788,0.8332202
933,9.329999999999846,1.247268,-0.2652594,1.5442973,1.26556,1.7628044,0.766025
934,9.339999999999845,1.2758061,-0.21409786,1.3329437,1.5028812,1.7432567,0.65011334
935,9.349999999999845,1.3174549,-0.2315379,1.2751354,1.7837266,1.865277,0.2171626
936,9.359999999999845,1.3470907,-0.2519659,1.2459264,1.7837266,1.865277,0.2171626
937,9.369999999999845,1.335017,-0.27166218,1.1983017,1.6783522,2.0534234,-0.020463986
938,9.379999999999844,1.335017,-0.27166218,1.1983017,1.5184582,2.2815816,-0.19853121
939,9.389999999999844,1.3111742,-0.31514034,1.2185466,1.3347405,2.537687,-0.34147367
940,9.399999999999844,1.3111742,-0.31514034,1.2185466,1.3347405,2.537687,-0.34147367
941,9.409999999999844,1.3846539,-0.4438674,1.3592867,1.1198688,3.125492,-0.6107125
942,9.419999999999844,1.4676466,-0.4996633,1.428559,1.0920744,3.3741143,-0.7770206
943,9.429999999999843,1.4676466,-0.4996633,1.428559,1.0920744,3.3741143,-0.7770206
944,9.439999999999843,1.4393523,-0.6529039,1.4213635,0.9650144,4.253149,-0.93309665
945,9.449999999999843,1.3663602,-0.7583979,1.4755129,0.86101454,4.9118147,-0.7884743
946,9.459999999999843,1.3385537,-0.8301094,1.5219791,0.90469146,5.2749743,-0.55481833
947,9.469999999999843,1.3930081,-0.8832222,1.5655181,1.0464121,5.537493,-0.21853705
948,9.479999999999842,1.5151494,-0.9031625,1.6498524,1.2508993,5.7002892,-0.00015271631
949,9.489999999999842,1.6318635,-0.90450394,1.6806469,1.5757269,6.0029726,0.2098322
950,9.499999999999842,1.7468702,-0.9142607,1.6844885,1.7116444,6.1198006,0.27382034
951,9.509999999999842,1.929076,-0.9384084,1.7070509,2.138792,6.425386,0.35353827
952,9.519999999999841,1.9940798,-0.954141,1.6996113,2.5360072,6.697679,0.34025195
953,9.529999999999841,1.9495649,-0.9833501,1.6342417,2.8472428,6.8728447,0.30726522
954,9.539999999999841,1.8101665,-0.99280185,1.5403947,3.184746,6.9629474,0.3126103
955,9.54999999999984,1.6704632,-0.9867649,1.4195341,3.5549302,6.947218,0.48380527
956,9.55999999999984,1.6951598,-0.92913955,1.4039234,3.5549302,6.947218,0.48380527
957,9.56999999999984,1.6951598,-0.92913955,1.4039234,3.7059667,7.0104423,0.5580254
958,9.57999999999984,1.6656458,-0.85450107,1.3320899,3.7873645,7.104974,0.54092115
959,9.58999999999984,1.4704516,-0.76388603,1.1023813,3.4138205,7.5615954,0.5661194
960,9.59999999999984,1.4689882,-0.725957,1.082929,3.241251,7.6764383,0.5902485
961,9.60999999999984,1.4689882,-0.725957,1.082929,3.241251,7.6764383,0.5902485
962,9.61999999999984,1.3311752,-0.65436745,1.1742148,3.241251,7.6764383,0.5902485
963,9.62999999999984,1.1472621,-0.65784323,1.340566,3.2102497,7.731263,0.58123827
964,9.639999999999839,1.0864048,-0.6979676,1.4095944,3.5242343,7.597942,0.68768156
965,9.649999999999839,0.9729226,-0.79791236,1.4589267,4.3768497,7.2240925,0.9625709
966,9.659999999999838,0.9113946,-0.8624893,1.3597134,5.2386274,7.0469413,1.2965615
967,9.669999999999838,0.95151895,-0.89163744,1.1640923,5.9212694,6.932099,1.591304
968,9.679999999999838,1.0525614,-0.8391954,0.7707157,6.4745607,6.5738263,1.8290832
969,9.689999999999838,1.0483538,-0.7789479,0.5642402,6.5623727,6.400646,1.8031214
970,9.699999999999838,0.9823134,-0.63790303,0.30843264,6.504035,5.9165354,1.5318973
971,9.709999999999837,0.87846595,-0.5019805,-0.11628727,6.4334803,5.719226,1.2765557
972,9.719999999999837,0.87846595,-0.5019805,-0.11628727,6.2120414,5.601329,0.96974856
973,9.729999999999837,0.7519951,-0.44612357,-0.37746105,5.7619863,5.5455875,0.7151705
974,9.739999999999837,0.69583327,-0.40996295,-0.5388119,5.3733234,5.5246654,0.5917757
975,9.749999999999837,0.4941142,-0.19440159,-0.8714533,4.55736,5.4948854,0.44348818
976,9.759999999999836,0.4941142,-0.19440159,-0.8714533,3.677256,5.3511796,0.3089451
977,9.769999999999836,0.4437454,-0.107628234,-0.90566254,2.4087944,4.7384815,-0.032986723
978,9.779999999999836,0.35550857,-0.016525354,-0.9101141,2.4087944,4.7384815,-0.032986723
979,9.789999999999836,0.1478135,0.024330689,-0.8332194,1.8135062,3.8321104,-0.33765575
980,9.799999999999836,0.071589544,0.015671646,-0.8061446,1.7116444,3.4041994,-0.3659083
981,9.809999999999835,0.032562874,0.018171793,-0.85431814,1.6497943,3.1549664,-0.35430184
982,9.819999999999835,-0.042868353,0.03652652,-0.92596865,1.5656476,2.937193,-0.3306308
983,9.829999999999835,-0.10287185,0.048600398,-0.9793254,1.5656476,2.937193,-0.3306308
984,9.839999999999835,-0.18013246,0.08244383,-1.074087,1.3811663,2.5014932,-0.27122417
985,9.849999999999834,-0.23092812,0.07988271,-1.1632386,1.3092369,2.272877,-0.23533584
986,9.859999999999834,-0.26745462,0.08128523,-1.2640373,1.3092369,2.272877,-0.23533584
987,9.869999999999834,-0.2997126,0.11128698,-1.4216074,1.2412782,1.9808832,-0.18432859
988,9.879999999999834,-0.2997126,0.11128698,-1.4216074,1.2412782,1.9808832,-0.18432859
989,9.889999999999834,-0.2997126,0.11128698,-1.4216074,1.2412782,1.9808832,-0.18432859
990,9.899999999999833,-0.27324766,0.21318316,-1.7486386,0.49403727,0.68966687,-0.14950927
991,9.909999999999833,-0.2965417,0.2365382,-1.7233322,-0.5384777,-0.39752057,-0.4390594
992,9.919999999999833,-0.32879966,0.23184279,-1.6090573,-0.5384777,-0.39752057,-0.4390594
993,9.929999999999833,-0.34331274,0.21678093,-1.5607618,-0.7154759,-0.6062838,-0.48456886
994,9.939999999999833,-0.386303,0.2110489,-1.4519749,-1.1119275,-1.1152872,-0.50579643
995,9.949999999999832,-0.40526757,0.2336112,-1.3695922,-1.4185818,-1.4185818,-0.4538729
996,9.959999999999832,-0.4089263,0.2494048,-1.3059908,-1.6084082,-1.6175711,-0.42119157
997,9.969999999999832,-0.39386442,0.27702835,-1.2184857,-1.7829629,-1.8724546,-0.3943135
998,9.979999999999832,-0.39386442,0.27702835,-1.2184857,-1.7829629,-1.8724546,-0.3943135
999,9.989999999999831,-0.35776478,0.3125792,-1.1444571,-1.895973,-2.171015,-0.38652498
1000,9.999999999999831,-0.29812714,0.33965397,-1.0253037,-2.0696115,-2.7739391,-0.48288897
