id,timestamp,acc_x,acc_y,acc_z,gyro_x,gyro_y,gyro_z
0,0,-0.1548261,-0.53814113,-0.7807163,0.34009922,0.4642576,-0.010995574
1,0.01,-0.1548261,-0.53814113,-0.7807163,0.30940324,0.5007568,-0.035888333
2,0.02,-0.11982407,-0.48289403,-0.799071,0.27916542,0.49556443,-0.084910266
3,0.03,-0.06555261,-0.40758476,-0.81748676,0.24449882,0.43295074,-0.16691893
4,0.04,-0.043539125,-0.37776592,-0.84151256,0.1244638,0.30650163,-0.19898935
5,0.05,-0.13945936,-0.34971553,-0.86718476,0.059864793,0.23777929,-0.16600263
6,0.060000000000000005,-0.13945936,-0.34971553,-0.86718476,0.059864793,0.23777929,-0.16600263
7,0.07,-0.23245259,-0.4188659,-0.8365732,0.059864793,0.23777929,-0.16600263
8,0.08,-0.20214595,-0.5878392,-0.84395164,0.075289145,-0.12568553,-0.022449298
9,0.09,-0.18434003,-0.59314436,-0.8641358,0.06078109,-0.14294247,-0.029932396
10,0.09999999999999999,-0.17025384,-0.5794241,-0.8700507,0.0056505036,-0.1432479,-0.043676864
11,0.10999999999999999,-0.17098558,-0.5744847,-0.8462079,0.0056505036,-0.1432479,-0.043676864
12,0.11999999999999998,-0.17421748,-0.5783264,-0.8126084,-0.10720685,-0.11957687,-0.04932737
13,0.12999999999999998,-0.1853157,-0.5831438,-0.7702279,-0.1328632,-0.1160644,-0.045814894
14,0.13999999999999999,-0.19946286,-0.5905222,-0.7649227,-0.1133155,-0.12568553,-0.0346666
15,0.15,-0.19964579,-0.58430237,-0.802059,-0.07040222,-0.14248432,-0.024587326
16,0.16,-0.19964579,-0.58430237,-0.802059,-0.07040222,-0.14248432,-0.024587326
17,0.17,-0.16647314,-0.5422268,-0.82998747,-0.061391957,-0.20952678,-0.020616703
18,0.18000000000000002,-0.15275282,-0.51673746,-0.8038884,-0.1001819,-0.24648413,-0.024281893
19,0.19000000000000003,-0.16470474,-0.4997243,-0.7866313,-0.12965615,-0.25396723,-0.019547688
20,0.20000000000000004,-0.17927876,-0.4763083,-0.7568734,-0.16523905,-0.25045475,-0.006414085
21,0.21000000000000005,-0.19507235,-0.45978296,-0.74748266,-0.17379116,-0.24556783,-0.0015271631
22,0.22000000000000006,-0.22458628,-0.41435343,-0.7975465,-0.20341812,-0.25427267,0.028863383
23,0.23000000000000007,-0.22458628,-0.41435343,-0.7975465,-0.20341812,-0.25427267,0.028863383
24,0.24000000000000007,-0.24281906,-0.40435287,-0.8339511,-0.24617869,-0.25579983,0.032223143
25,0.25000000000000006,-0.26391783,-0.41478032,-0.8622454,-0.28909197,-0.26099217,0.027183503
26,0.26000000000000006,-0.2948343,-0.43404973,-0.87547797,-0.28909197,-0.26099217,0.027183503
27,0.2700000000000001,-0.2948343,-0.43404973,-0.87547797,-0.3924809,-0.23472497,0.08628472
28,0.2800000000000001,-0.32038453,-0.48826018,-0.8716972,-0.38973203,-0.25305092,0.063224554
29,0.2900000000000001,-0.30428603,-0.5671672,-0.88029534,-0.29428434,-0.14492778,0.13057245
30,0.3000000000000001,-0.27879676,-0.5772288,-0.8882226,-0.2443461,-0.09330966,0.12461651
31,0.3100000000000001,-0.26501545,-0.5757653,-0.90218675,-0.1908954,-0.008857546,0.09285152
32,0.3200000000000001,-0.260503,-0.57527745,-0.9114556,-0.16920967,0.04016439,0.07803804
33,0.3300000000000001,-0.25574663,-0.55869114,-0.9145046,-0.16707164,0.09254608,0.061850104
34,0.34000000000000014,-0.25208786,-0.5405803,-0.8981622,-0.1853976,0.09728029,0.06047566
35,0.35000000000000014,-0.2549539,-0.5166155,-0.8716362,-0.205098,0.10216721,0.0580322
36,0.36000000000000015,-0.25440508,-0.48826018,-0.84175646,-0.21013765,0.12767084,0.05665775
37,0.37000000000000016,-0.25080732,-0.46917373,-0.825414,-0.20647246,0.1423316,0.052839845
38,0.38000000000000017,-0.24818522,-0.43258622,-0.8146207,-0.18432859,0.14248432,0.031001411
39,0.3900000000000002,-0.25184396,-0.40185273,-0.80919355,-0.1853976,0.13026701,0.010231993
40,0.4000000000000002,-0.2397701,-0.37014353,-0.81626713,-0.21288654,0.117744274,-0.079107046
41,0.4100000000000002,-0.23873344,-0.3536182,-0.8344999,-0.21288654,0.117744274,-0.079107046
42,0.4200000000000002,-0.22903776,-0.3595332,-0.8738315,-0.25167647,0.101556346,-0.12461651
43,0.4300000000000002,-0.23659918,-0.3902667,-0.8764536,-0.30848694,0.049785517,-0.1994475
44,0.4400000000000002,-0.23659918,-0.3902667,-0.8764536,-0.3371976,-0.007788532,-0.24083363
45,0.45000000000000023,-0.26190552,-0.45709983,-0.84029293,-0.40591997,-0.13881913,-0.2518292
46,0.46000000000000024,-0.26190552,-0.45709983,-0.84029293,-0.40591997,-0.13881913,-0.2518292
47,0.47000000000000025,-0.3047739,-0.5044197,-0.7694961,-0.3987423,-0.15943582,-0.2003638
48,0.48000000000000026,-0.31715265,-0.50832236,-0.7422384,-0.35369098,-0.15790866,-0.1498147
49,0.49000000000000027,-0.31715265,-0.50832236,-0.7422384,-0.35369098,-0.15790866,-0.1498147
50,0.5000000000000002,-0.25714916,-0.44356245,-0.737604,-0.22770002,-0.1863139,-0.075594574
51,0.5100000000000002,-0.25714916,-0.44356245,-0.737604,-0.22770002,-0.1863139,-0.075594574
52,0.5200000000000002,-0.2637349,-0.38160762,-0.85047644,-0.18600847,-0.16294831,-0.1133155
53,0.5300000000000002,-0.29202923,-0.35081315,-0.91743153,-0.23411411,-0.12904528,-0.11377365
54,0.5400000000000003,-0.32148215,-0.34282488,-0.9519458,-0.29428434,-0.1049161,-0.116675265
55,0.5500000000000003,-0.3489838,-0.36983865,-0.9592023,-0.29428434,-0.1049161,-0.116675265
56,0.5600000000000003,-0.33294627,-0.4105727,-0.9356034,-0.37675115,-0.11026118,-0.03772093
57,0.5700000000000003,-0.28288236,-0.4598439,-0.8887104,-0.32070425,-0.107359566,-0.004276057
58,0.5800000000000003,-0.24452646,-0.5022854,-0.84431756,-0.19960022,-0.07727446,-0.0012217305
59,0.5900000000000003,-0.19543824,-0.5112493,-0.82870686,-0.06887506,-0.011911872,-0.022602014
60,0.6000000000000003,-0.18690115,-0.503505,-0.85651344,0.0580322,0.05971208,-0.045356743
61,0.6100000000000003,-0.19354787,-0.4617343,-0.9004794,0.084910266,0.07941248,-0.049021937
62,0.6200000000000003,-0.19354787,-0.4617343,-0.9004794,0.084910266,0.07941248,-0.049021937
63,0.6300000000000003,-0.21550037,-0.3728876,-0.9499944,0.024129177,0.055741455,-0.10186178
64,0.6400000000000003,-0.31526232,-0.31062788,-0.9556655,0.024129177,0.055741455,-0.10186178
65,0.6500000000000004,-0.31526232,-0.31062788,-0.9556655,-0.2182316,0.032223143,-0.10323623
66,0.6600000000000004,-0.26940596,-0.3919131,-0.8601721,-0.28344148,0.044135015,-0.06337727
67,0.6700000000000004,-0.2564174,-0.4228905,-0.8294386,-0.2677117,0.05513059,-0.052381694
68,0.6800000000000004,-0.24153848,-0.47722298,-0.7716304,-0.17760907,0.13255776,-0.07162395
69,0.6900000000000004,-0.245868,-0.5098468,-0.75809306,-0.07269296,0.2284636,-0.11789699
70,0.7000000000000004,-0.245868,-0.5098468,-0.75809306,-0.07269296,0.2284636,-0.11789699
71,0.7100000000000004,-0.33916613,-0.5252746,-0.82754827,0.14828753,0.40301836,-0.204029
72,0.7200000000000004,-0.39788908,-0.49801686,-0.8709045,0.19685133,0.4277584,-0.18066339
73,0.7300000000000004,-0.45380697,-0.46240503,-0.90352833,0.19685133,0.4277584,-0.18066339
74,0.7400000000000004,-0.45380697,-0.46240503,-0.90352833,0.19685133,0.4277584,-0.18066339
75,0.7500000000000004,-0.45380697,-0.46240503,-0.90352833,0.19685133,0.4277584,-0.18066339
76,0.7600000000000005,-0.2531855,-0.4109996,-0.9124313,0.36102137,0.086437434,0.25488353
77,0.7700000000000005,-0.19287711,-0.40667006,-0.90261364,0.35155296,0.03390302,0.26847526
78,0.7800000000000005,-0.11073817,-0.38179058,-0.89377165,0.2941316,0.028710667,0.24617869
79,0.7900000000000005,-0.091956586,-0.35581344,-0.8851736,0.23289238,0.07696902,0.18310685
80,0.8000000000000005,-0.09323715,-0.3284948,-0.8728558,0.15118915,0.1020145,0.088422745
81,0.8100000000000005,-0.12604393,-0.30190787,-0.8734656,0.091477074,0.11010846,0.023060163
82,0.8200000000000005,-0.1460451,-0.289834,-0.87870985,0.05497787,0.10980303,-0.011301007
83,0.8300000000000005,-0.21690291,-0.25971028,-0.92804193,0.0041233404,0.055741455,-0.046883907
84,0.8400000000000005,-0.1917185,-0.30007848,-0.9355424,-0.020158553,-0.12385293,-0.05009095
85,0.8500000000000005,-0.1536675,-0.37636343,-0.9430428,-0.027794369,-0.21303925,-0.079107046
86,0.8600000000000005,-0.1536675,-0.37636343,-0.9430428,-0.027794369,-0.21303925,-0.079107046
87,0.8700000000000006,-0.16080207,-0.47667417,-0.90139407,-0.046731193,-0.27305678,-0.11560625
88,0.8800000000000006,-0.17311986,-0.48545516,-0.883893,-0.09239337,-0.34300083,-0.17806722
89,0.8900000000000006,-0.22623271,-0.51039565,-0.81736475,-0.082161374,-0.38453966,-0.19364429
90,0.9000000000000006,-0.24013597,-0.51624966,-0.7915706,-0.04062254,-0.39400807,-0.18112154
91,0.9100000000000006,-0.24739249,-0.51972544,-0.7935829,-0.013744468,-0.3791946,-0.17134771
92,0.9200000000000006,-0.24056281,-0.5373484,-0.834195,0.0076358155,-0.3155119,-0.14813483
93,0.9300000000000006,-0.22592781,-0.5539957,-0.8718801,-0.03573562,-0.27672195,-0.12782355
94,0.9400000000000006,-0.21074401,-0.5572886,-0.880966,-0.099265605,-0.29779682,-0.114689946
95,0.9500000000000006,-0.2025728,-0.5547885,-0.87017274,-0.16875152,-0.35201108,-0.10140363
96,0.9600000000000006,-0.20129223,-0.5459465,-0.8561475,-0.22113322,-0.40225476,-0.08445212
97,0.9700000000000006,-0.1972676,-0.5195425,-0.8369391,-0.27000242,-0.43066,-0.06627888
98,0.9800000000000006,-0.1999507,-0.48545516,-0.83004844,-0.30069843,-0.4344779,-0.06765333
99,0.9900000000000007,-0.22025676,-0.4344156,-0.82846296,-0.3203988,-0.40042216,-0.08506299
100,1.0000000000000007,-0.26269826,-0.41325584,-0.83937824,-0.30115658,-0.33567044,-0.09621128
101,1.0100000000000007,-0.28251648,-0.4226466,-0.8511472,-0.27229318,-0.2780964,-0.09132435
102,1.0200000000000007,-0.28587034,-0.45886827,-0.8848687,-0.2191479,-0.21548271,-0.04230242
103,1.0300000000000007,-0.27495506,-0.47246656,-0.8943204,-0.18493946,-0.26389378,0.040011674
104,1.0400000000000007,-0.26733267,-0.4680151,-0.87870985,-0.18493946,-0.26389378,0.040011674
105,1.0500000000000007,-0.27013773,-0.44453815,-0.857611,-0.14309518,-0.31978795,0.07727446
106,1.0600000000000007,-0.27672347,-0.41971964,-0.8462689,-0.073303826,-0.3313944,0.104610674
107,1.0700000000000007,-0.29849303,-0.34026375,-0.8060836,-0.038179077,-0.27885997,0.09728029
108,1.0800000000000007,-0.3108108,-0.33349505,-0.7979734,-0.008093964,-0.17730364,0.07391469
109,1.0900000000000007,-0.3108108,-0.33349505,-0.7979734,0.047647487,-0.096516706,0.04932737
110,1.1000000000000008,-0.32910457,-0.35166687,-0.8115718,0.10125092,-0.043676864,0.028710667
111,1.1100000000000008,-0.36575305,-0.4056944,-0.8712093,0.17073683,-0.00045814895,0.027794369
112,1.1200000000000008,-0.39063254,-0.42642733,-0.90578455,0.2060143,0.019242255,0.048716504
113,1.1300000000000008,-0.42020744,-0.43398872,-0.919139,0.22418754,0.021838432,0.089186326
114,1.1400000000000008,-0.42020744,-0.43398872,-0.919139,0.22418754,0.021838432,0.089186326
115,1.1500000000000008,-0.43301308,-0.4174634,-0.91072387,0.24358252,0.016035212,0.13087788
116,1.1600000000000008,-0.43929392,-0.37014353,-0.8967596,0.26297748,0.01985312,0.16157386
117,1.1700000000000008,-0.4238662,-0.35105708,-0.89194226,0.28496864,0.13469578,0.20891592
118,1.1800000000000008,-0.38398582,-0.34495914,-0.8843199,0.2780964,0.22021692,0.22693644
119,1.1900000000000008,-0.33916613,-0.35587442,-0.88078314,0.2742785,0.24694228,0.22800545
120,1.2000000000000008,-0.30684718,-0.38294917,-0.87724626,0.27931812,0.23854288,0.2096795
121,1.2100000000000009,-0.2876997,-0.41203624,-0.8742583,0.29077184,0.20922135,0.17806722
122,1.2200000000000009,-0.2876997,-0.41203624,-0.8742583,0.31108314,0.15683965,0.12950343
123,1.2300000000000009,-0.2876997,-0.41203624,-0.8742583,0.31108314,0.15683965,0.12950343
124,1.2400000000000009,-0.31325,-0.45331916,-0.92663944,0.35246924,0.077579886,0.0627664
125,1.2500000000000009,-0.33111688,-0.37307054,-0.94438434,0.32070425,0.10170906,0.012370021
126,1.260000000000001,-0.33111688,-0.37307054,-0.94438434,0.32070425,0.10170906,0.012370021
127,1.270000000000001,-0.31812832,-0.3597771,-0.9360912,0.28512135,0.11010846,0.01572978
128,1.280000000000001,-0.28093103,-0.36191136,-0.8962108,0.20830505,0.081397794,-0.009010263
129,1.290000000000001,-0.28093103,-0.36191136,-0.8962108,0.18799378,0.050701816,-0.047036625
130,1.300000000000001,-0.31050593,-0.43734258,-0.81760865,0.24480425,0.062002823,-0.13469578
131,1.310000000000001,-0.32892162,-0.44185504,-0.82797515,0.28145617,0.069485925,-0.13820826
132,1.320000000000001,-0.32623854,-0.43173254,-0.85535485,0.31444287,0.05513059,-0.11346822
133,1.330000000000001,-0.31154257,-0.42337835,-0.8684653,0.29993483,0.024587326,-0.100029185
134,1.340000000000001,-0.2628202,-0.41386563,-0.8773683,0.2049453,-0.06154467,-0.08552113
135,1.350000000000001,-0.22696446,-0.42618343,-0.8451712,0.10125092,-0.10980303,-0.08109236
136,1.360000000000001,-0.20860973,-0.4454528,-0.813584,0.021685716,-0.12492194,-0.079107046
137,1.370000000000001,-0.20860973,-0.4454528,-0.813584,0.021685716,-0.12492194,-0.079107046
138,1.380000000000001,-0.20190202,-0.5089321,-0.71430993,-0.11759156,-0.02443461,-0.064446285
139,1.390000000000001,-0.22153732,-0.4905774,-0.7152246,-0.08827003,-0.010842858,-0.06566802
140,1.400000000000001,-0.24659975,-0.46990547,-0.7566295,-0.03176499,-0.027641652,-0.087201014
141,1.410000000000001,-0.30806676,-0.45161173,-0.8617576,-0.021533,-0.059253927,-0.105374254
142,1.420000000000001,-0.30806676,-0.45161173,-0.8617576,-0.076358154,-0.087659165,-0.110413894
143,1.430000000000001,-0.32886064,-0.45911217,-0.872124,-0.17073683,-0.09682214,-0.09025534
144,1.440000000000001,-0.33349505,-0.47069818,-0.8432809,-0.23335053,-0.10445796,-0.061239243
145,1.450000000000001,-0.32447016,-0.50021213,-0.79602206,-0.2518292,-0.11438452,-0.03924809
146,1.460000000000001,-0.31355488,-0.53167737,-0.7497389,-0.22739458,-0.10567969,-0.02321288
147,1.470000000000001,-0.2948343,-0.55045897,-0.71132195,-0.14950927,-0.052687127,-0.010842858
148,1.480000000000001,-0.26501545,-0.518201,-0.73479897,-0.05955936,0.024892759,-0.011759156
149,1.490000000000001,-0.26501545,-0.518201,-0.73479897,0.043982297,0.10476339,-0.015118915
150,1.500000000000001,-0.2564174,-0.49637043,-0.7837042,0.09162979,0.119729586,-0.0038179078
151,1.5100000000000011,-0.21854934,-0.49100426,-0.8700507,-0.04642576,0.03359759,0.05681047
152,1.5200000000000011,-0.18494982,-0.48838213,-0.86450166,-0.118507855,-0.0022907446,0.061391957
153,1.5300000000000011,-0.17061971,-0.48868704,-0.83754885,-0.2171626,-0.06154467,0.034055736
154,1.5400000000000011,-0.1838522,-0.48051584,-0.8363293,-0.23258694,-0.09712757,-0.00015271631
155,1.5500000000000012,-0.22476922,-0.44331855,-0.860538,-0.21135938,-0.13118331,-0.023060163
156,1.5600000000000012,-0.2680644,-0.40319425,-0.89169836,-0.19624045,-0.16768251,-0.038789943
157,1.5700000000000012,-0.2680644,-0.40319425,-0.89169836,-0.19624045,-0.16768251,-0.038789943
158,1.5800000000000012,-0.33160472,-0.33495858,-0.9165779,-0.21777347,-0.2264783,-0.049632803
159,1.5900000000000012,-0.31812832,-0.34892282,-0.8879787,-0.24862215,-0.20952678,-0.029168816
160,1.6000000000000012,-0.283919,-0.3811808,-0.8321827,-0.24862215,-0.20952678,-0.029168816
161,1.6100000000000012,-0.283919,-0.3811808,-0.8321827,-0.27397305,-0.11438452,-0.013744468
162,1.6200000000000012,-0.24781933,-0.48795533,-0.77059376,-0.24358252,-0.08246681,-0.014966198
163,1.6300000000000012,-0.29196826,-0.51765215,-0.822304,-0.16432275,-0.044135015,-0.012064588
164,1.6400000000000012,-0.31861615,-0.4990535,-0.90127206,-0.122783914,-0.04153884,-0.0021380284
165,1.6500000000000012,-0.32129923,-0.45929506,-0.9475553,-0.12003502,-0.07192938,-0.00076358154
166,1.6600000000000013,-0.30879852,-0.4080726,-0.960239,-0.14156802,-0.13316862,-0.016493361
167,1.6700000000000013,-0.3085546,-0.38758358,-0.9459089,-0.16707164,-0.15897769,-0.026419923
168,1.6800000000000013,-0.30154198,-0.39166918,-0.86730665,-0.21120666,-0.13607024,-0.03772093
169,1.6900000000000013,-0.30154198,-0.39166918,-0.86730665,-0.20295998,-0.09697486,-0.036651913
170,1.7000000000000013,-0.30154198,-0.39166918,-0.86730665,-0.20295998,-0.09697486,-0.036651913
171,1.7100000000000013,-0.2687352,-0.5030171,-0.86657494,-0.20295998,-0.09697486,-0.036651913
172,1.7200000000000013,-0.27141827,-0.47667417,-0.85425717,-0.048563786,-0.1020145,-0.038026363
173,1.7300000000000013,-0.31123766,-0.4619172,-0.8734046,-0.009162978,-0.12751812,-0.030390546
174,1.7400000000000013,-0.33014122,-0.41423148,-0.8707215,-0.009162978,-0.12751812,-0.030390546
175,1.7500000000000013,-0.3261166,-0.35959417,-0.8650505,0.046883907,-0.10262536,-0.009315695
176,1.7600000000000013,-0.3261166,-0.35959417,-0.8650505,0.046883907,-0.10262536,-0.009315695
177,1.7700000000000014,-0.30806676,-0.32629952,-0.8360244,0.03863723,-0.00992656,0.0036651916
178,1.7800000000000014,-0.30288354,-0.33056808,-0.81888926,0.05665775,0.032986723,0.014660766
179,1.7900000000000014,-0.2918463,-0.35880142,-0.83206075,0.08460484,0.045356743,0.030695979
180,1.8000000000000014,-0.26794246,-0.40166977,-0.85907453,0.106595986,0.04795292,0.051618114
181,1.8100000000000014,-0.25891754,-0.4250248,-0.86602616,0.10903945,0.043066,0.054061573
182,1.8200000000000014,-0.24702659,-0.46149033,-0.86639196,0.12767084,0.018784106,0.04444045
183,1.8300000000000014,-0.24166043,-0.47313735,-0.85791594,0.14508049,-0.023823744,0.03863723
184,1.8400000000000014,-0.25745404,-0.46441734,-0.84212226,0.14782938,-0.051923547,0.038789943
185,1.8500000000000014,-0.29087064,-0.44502598,-0.82657266,0.14767668,-0.047036625,0.044898596
186,1.8600000000000014,-0.3325804,-0.42185387,-0.81218153,0.14752395,-0.021380283,0.053297993
187,1.8700000000000014,-0.37624148,-0.4045358,-0.7987051,0.15317446,0.03970624,0.0580322
188,1.8800000000000014,-0.40465775,-0.4223417,-0.81779164,0.18020524,0.16676621,0.0711658
189,1.8900000000000015,-0.41691455,-0.44587967,-0.8483422,0.19639318,0.26832256,0.10140363
190,1.9000000000000015,-0.38977882,-0.46380752,-0.8702337,0.1919644,0.3220787,0.1647809
191,1.9100000000000015,-0.34636167,-0.48112562,-0.86718476,0.19700404,0.3098614,0.16982053
192,1.9200000000000015,-0.30452996,-0.4929556,-0.8480983,0.26236662,0.2724459,0.12873985
193,1.9300000000000015,-0.29849303,-0.45978296,-0.83675617,0.37751472,0.32559118,0.0571159
194,1.9400000000000015,-0.30251765,-0.41740242,-0.849013,0.40546182,0.3915646,0.025198191
195,1.9500000000000015,-0.30251765,-0.41740242,-0.849013,0.40546182,0.3915646,0.025198191
196,1.9600000000000015,-0.30635932,-0.3887422,-0.8718192,0.39522982,0.45860708,0.0027488936
197,1.9700000000000015,-0.29056573,-0.3960597,-0.89200324,0.31444287,0.4373795,0.02076942
198,1.9800000000000015,-0.23300138,-0.47905236,-0.8948083,0.20647246,0.26832256,0.06963864
199,1.9900000000000015,-0.16635117,-0.5526542,-0.8834662,0.118966006,0.14446963,0.09407325
200,2.0000000000000013,-0.102140106,-0.5979617,-0.84864706,-0.007330383,0.011911872,0.0926988
201,2.010000000000001,-0.08043153,-0.61088926,-0.8170599,-0.08368854,-0.06429356,0.049632803
202,2.020000000000001,-0.119946025,-0.5477149,-0.79925394,-0.13164146,-0.10995574,-0.07162395
203,2.0300000000000007,-0.23172083,-0.4358181,-0.8012663,-0.14950927,-0.10170906,-0.1611157
204,2.0400000000000005,-0.3466056,-0.35081315,-0.81663305,-0.17287487,-0.06765333,-0.19074267
205,2.0500000000000003,-0.41410953,-0.30739596,-0.8202918,-0.2012801,-0.039858956,-0.17989981
206,2.06,-0.45277032,-0.29349273,-0.8135231,-0.20555615,-0.0067195175,-0.12996158
207,2.07,-0.43307403,-0.32062846,-0.8178526,-0.18875736,-0.0041233404,-0.06627888
208,2.0799999999999996,-0.27050358,-0.43130565,-0.8251092,-0.18768835,-0.051618114,0.009773844
209,2.0899999999999994,-0.27050358,-0.43130565,-0.8251092,-0.19868392,-0.08460484,0.047800206
210,2.099999999999999,-0.2277572,-0.5716797,-0.7732159,-0.1525636,0.03283401,-0.016035212
211,2.109999999999999,-0.2277572,-0.5716797,-0.7732159,-0.1525636,0.03283401,-0.016035212
212,2.1199999999999988,-0.33709285,-0.5652159,-0.8153525,-0.0041233404,0.13515393,0.02367103
213,2.1299999999999986,-0.33709285,-0.5652159,-0.8153525,-0.0041233404,0.13515393,0.02367103
214,2.1399999999999983,-0.3605698,-0.5479588,-0.86401385,0.037415497,0.073303826,0.11224649
215,2.149999999999998,-0.35111806,-0.3778879,-0.8865151,0.10094548,-0.082619525,0.14385876
216,2.159999999999998,-0.33081198,-0.3137988,-0.8617576,0.10094548,-0.082619525,0.14385876
217,2.1699999999999977,-0.29556602,-0.27995536,-0.8481592,0.15470162,-0.046883907,0.114689946
218,2.1799999999999975,-0.29556602,-0.27995536,-0.8481592,0.15470162,-0.046883907,0.114689946
219,2.1899999999999973,-0.29556602,-0.27995536,-0.8481592,0.15470162,-0.046883907,0.114689946
220,2.199999999999997,-0.22275689,-0.34294683,-0.8754169,0.11453723,0.40576723,0.09666943
221,2.209999999999997,-0.23794071,-0.3971573,-0.8875518,0.09758572,0.3652974,0.12003502
222,2.2199999999999966,-0.25897855,-0.4533801,-0.89535713,0.08353582,0.2396119,0.16691893
223,2.2299999999999964,-0.2711134,-0.4617343,-0.89444244,0.09636399,0.16401732,0.16722436
224,2.239999999999996,-0.28776067,-0.44185504,-0.9001745,0.14126259,0.0983493,0.1348485
225,2.249999999999996,-0.30044436,-0.41325584,-0.91627294,0.18219055,0.05467244,0.09972375
226,2.259999999999996,-0.29849303,-0.403987,-0.9207245,0.18478674,0.044898596,0.08017606
227,2.2699999999999956,-0.2711134,-0.43154958,-0.91523635,0.13958271,0.05787948,0.038331795
228,2.2799999999999954,-0.24257512,-0.52618927,-0.8348658,0.040317107,0.10842858,-0.0053450707
229,2.289999999999995,-0.24257512,-0.52618927,-0.8348658,0.010842858,0.1253801,-0.014202617
230,2.299999999999995,-0.23629428,-0.56893563,-0.805047,0.0071776668,0.120493166,-0.012980887
231,2.3099999999999947,-0.22251299,-0.58540004,-0.8027297,0.00015271631,0.08628472,-0.014049901
232,2.3199999999999945,-0.22251299,-0.58540004,-0.8027297,-0.012980887,0.044593163,-0.031154128
233,2.3299999999999943,-0.2376968,-0.50216347,-0.79858315,-0.030695979,-0.021380283,-0.060322944
234,2.339999999999994,-0.2455631,-0.46325874,-0.81327915,-0.054519724,-0.081397794,-0.082161374
235,2.349999999999994,-0.2455631,-0.46325874,-0.81327915,-0.054519724,-0.081397794,-0.082161374
236,2.3599999999999937,-0.24977067,-0.4077067,-0.81736475,-0.13362677,-0.16249016,-0.08368854
237,2.3699999999999934,-0.24050182,-0.41691455,-0.81083995,-0.15439619,-0.16997325,-0.076358154
238,2.3799999999999932,-0.20031658,-0.48289403,-0.79693675,-0.16798794,-0.16508633,-0.058184914
239,2.389999999999993,-0.17940071,-0.5490564,-0.8003516,-0.16447547,-0.15286903,-0.055741455
240,2.399999999999993,-0.16439983,-0.59674215,-0.80833983,-0.15958855,-0.13576481,-0.060628377
241,2.4099999999999926,-0.1765347,-0.61338943,-0.8043762,-0.1525636,-0.10888673,-0.05955936
242,2.4199999999999924,-0.20293866,-0.5858269,-0.813767,-0.14034629,-0.1160644,-0.036193766
243,2.429999999999992,-0.23086715,-0.5227134,-0.8333413,-0.15577064,-0.19914207,-0.007788532
244,2.439999999999992,-0.2643447,-0.4376475,-0.85468405,-0.15577064,-0.19914207,-0.007788532
245,2.4499999999999917,-0.3120304,-0.33227548,-0.87791705,-0.15454891,-0.20647246,0.008246681
246,2.4599999999999915,-0.3298363,-0.26708874,-0.8871859,-0.1133155,-0.17440203,0.0364992
247,2.4699999999999913,-0.32837284,-0.25983223,-0.89163744,-0.030695979,-0.13347405,0.09056077
248,2.479999999999991,-0.24495333,-0.35495973,-0.94273794,-0.030695979,-0.13347405,0.09056077
249,2.489999999999991,-0.24495333,-0.35495973,-0.94273794,-0.08200866,-0.16554448,0.10140363
250,2.4999999999999907,-0.25013652,-0.43484247,-0.9110898,-0.08200866,-0.16554448,0.10140363
251,2.5099999999999905,-0.24824621,-0.44648945,-0.8977963,-0.09987647,-0.22296582,0.10522154
252,2.5199999999999902,-0.29471233,-0.4613074,-0.875173,-0.049632803,-0.21777347,0.08964448
253,2.52999999999999,-0.32447016,-0.45173368,-0.87755126,0.02367103,-0.18448131,0.07040222
254,2.53999999999999,-0.32447016,-0.45173368,-0.87755126,0.02367103,-0.18448131,0.07040222
255,2.5499999999999896,-0.34678853,-0.43685475,-0.8964548,0.09712757,-0.15958855,0.04627304
256,2.5599999999999894,-0.36654577,-0.40886533,-0.9379206,0.18555032,-0.15057829,0.0125227375
257,2.569999999999989,-0.3664848,-0.40106,-0.9492627,0.18310685,-0.13836098,-0.008246681
258,2.579999999999989,-0.36459443,-0.41026786,-0.93499357,0.14126259,-0.09972375,-0.030695979
259,2.5899999999999888,-0.36538717,-0.4170365,-0.9022478,0.099265605,-0.051159963,-0.04718934
260,2.5999999999999885,-0.36715558,-0.42032942,-0.86809945,0.07941248,0.0036651916,-0.06582073
261,2.6099999999999883,-0.3816686,-0.4246589,-0.8272434,0.093767814,0.05375614,-0.07941248
262,2.619999999999988,-0.3816686,-0.4246589,-0.8272434,0.17440203,0.08475755,-0.07895433
263,2.629999999999988,-0.3810588,-0.43392777,-0.83639026,0.23579398,0.070554934,-0.06994407
264,2.6399999999999877,-0.32995826,-0.44984335,-0.8668798,0.24449882,0.013286319,-0.034208454
265,2.6499999999999875,-0.32995826,-0.44984335,-0.8668798,0.24449882,0.013286319,-0.034208454
266,2.6599999999999873,-0.32995826,-0.44984335,-0.8668798,0.24449882,0.013286319,-0.034208454
267,2.669999999999987,-0.32995826,-0.44984335,-0.8668798,0.14614952,-0.049632803,-0.08475755
268,2.679999999999987,-0.3052617,-0.49045542,-0.8227919,0.1647809,-0.084910266,-0.08445212
269,2.6899999999999866,-0.34312975,-0.50923705,-0.82876784,0.18341228,-0.13729197,-0.058490347
270,2.6999999999999864,-0.3559354,-0.4776498,-0.8346219,0.18341228,-0.13729197,-0.058490347
271,2.709999999999986,-0.3559354,-0.4776498,-0.8346219,0.19792034,-0.15057829,-0.0106901415
272,2.719999999999986,-0.3187381,-0.42575654,-0.83297545,0.22418754,-0.06490443,-0.008399397
273,2.7299999999999858,-0.28879735,-0.42758593,-0.8506594,0.21303925,-0.04184427,-0.015882496
274,2.7399999999999856,-0.26495448,-0.4235003,-0.8499886,0.15577064,-0.076358154,-0.018478673
275,2.7499999999999853,-0.25611252,-0.42087823,-0.8114498,0.09132435,-0.13164146,-0.032223143
276,2.759999999999985,-0.2698938,-0.42758593,-0.7418116,0.04016439,-0.14309518,-0.08628472
277,2.769999999999985,-0.29404154,-0.4291104,-0.7132733,0.04505131,-0.107665,-0.109650314
278,2.7799999999999847,-0.3286777,-0.4230125,-0.7161393,0.07727446,0.0071776668,-0.12217305
279,2.7899999999999845,-0.33904418,-0.4314276,-0.7449215,0.09728029,0.095294975,-0.11010846
280,2.7999999999999843,-0.32831186,-0.4549046,-0.78443605,0.11636983,0.16126843,-0.0870483
281,2.809999999999984,-0.26702777,-0.5078345,-0.8368171,0.14065172,0.16264287,-0.0759
282,2.819999999999984,-0.26702777,-0.5078345,-0.8368171,0.17837265,0.06887506,-0.09483683
283,2.8299999999999836,-0.2614177,-0.47801572,-0.82785314,0.1873829,0.04932737,-0.14492778
284,2.8399999999999834,-0.2614177,-0.47801572,-0.82785314,0.1873829,0.04932737,-0.14492778
285,2.849999999999983,-0.27123535,-0.45600224,-0.7873021,0.12217305,0.2576324,-0.16203201
286,2.859999999999983,-0.27580878,-0.4911262,-0.79370487,0.11071932,0.28084528,-0.13775012
287,2.869999999999983,-0.27580878,-0.4911262,-0.79370487,0.11071932,0.28084528,-0.13775012
288,2.8799999999999826,-0.22178122,-0.5699113,-0.83754885,0.06337727,0.18173242,-0.06795876
289,2.8899999999999824,-0.22178122,-0.5699113,-0.83754885,0.06337727,0.18173242,-0.06795876
290,2.899999999999982,-0.19549921,-0.56777704,-0.8363293,0.019242255,0.039858956,-0.08231409
291,2.909999999999982,-0.18982814,-0.5067369,-0.8068154,-0.007330383,-0.0018325958,-0.09697486
292,2.9199999999999817,-0.20952442,-0.47033232,-0.8064495,-0.007330383,-0.0018325958,-0.09697486
293,2.9299999999999815,-0.25611252,-0.4311227,-0.80303466,-0.063988134,0.03924809,-0.087659165
294,2.9399999999999813,-0.2789797,-0.42106113,-0.8097424,-0.086437434,0.05024367,-0.054825157
295,2.949999999999981,-0.2725159,-0.43905002,-0.81529146,-0.10629055,0.06352998,-0.002443461
296,2.959999999999981,-0.26501545,-0.46728337,-0.816816,-0.11010846,0.064751714,0.012217305
297,2.9699999999999807,-0.23928225,-0.52997,-0.81675494,-0.07696902,0.016187929,0.046883907
298,2.9799999999999804,-0.22995245,-0.55527633,-0.8104741,-0.04352415,-0.023823744,0.04734206
299,2.9899999999999802,-0.22989148,-0.56454515,-0.8099253,-0.025045475,-0.031001411,0.03023783
300,2.99999999999998,-0.24611193,-0.54753196,-0.80833983,-0.037415497,-0.00061086525,0.008093964
301,3.00999999999998,-0.2619665,-0.52179873,-0.796144,-0.073303826,0.06872234,-0.0071776668
302,3.0199999999999796,-0.28788266,-0.45508754,-0.77967966,-0.11911872,0.14034629,-0.011301007
303,3.0299999999999794,-0.28788266,-0.45508754,-0.77967966,-0.13500121,0.11713341,-0.0076358155
304,3.039999999999979,-0.29410252,-0.4411233,-0.8018151,-0.13087788,0.056199603,-0.0013744468
305,3.049999999999979,-0.29379764,-0.43679374,-0.83017033,-0.112399206,0.041691553,0.013591751
306,3.0599999999999787,-0.25074634,-0.456673,-0.8849907,-0.12843442,0.057421334,0.004886922
307,3.0699999999999785,-0.24196534,-0.47271052,-0.87938064,-0.14187345,0.052381694,-0.007483099
308,3.0799999999999783,-0.24196534,-0.47271052,-0.87938064,-0.14187345,0.052381694,-0.007483099
309,3.089999999999978,-0.25745404,-0.5542397,-0.8868201,-0.12064589,0.0012217305,0.00870483
310,3.099999999999978,-0.25775895,-0.57911915,-0.89236915,-0.11927144,-0.025503624,0.023518313
311,3.1099999999999777,-0.25092927,-0.5600937,-0.90615046,-0.1151481,-0.09514226,0.021380283
312,3.1199999999999775,-0.26129574,-0.5109445,-0.9200537,-0.09972375,-0.16462818,-0.0062613687
313,3.1299999999999772,-0.26452765,-0.46325874,-0.9211513,-0.09972375,-0.16462818,-0.0062613687
314,3.139999999999977,-0.2549539,-0.42709813,-0.9229197,-0.09972375,-0.16462818,-0.0062613687
315,3.149999999999977,-0.254649,-0.41978058,-0.9084066,-0.09972375,-0.16462818,-0.0062613687
316,3.1599999999999766,-0.2584297,-0.42551264,-0.85572064,-0.11438452,-0.1525636,-0.040775254
317,3.1699999999999764,-0.26702777,-0.45173368,-0.81943804,-0.14309518,-0.09040806,-0.02397646
318,3.179999999999976,-0.26702777,-0.45173368,-0.81943804,-0.14309518,-0.09040806,-0.02397646
319,3.189999999999976,-0.2944684,-0.47661316,-0.78772885,-0.07727446,-0.06078109,-0.010231993
320,3.1999999999999758,-0.3008712,-0.468381,-0.79132664,-0.0355829,-0.055588737,-0.005192355
321,3.2099999999999755,-0.31599405,-0.409658,-0.82486516,0.04153884,-0.052687127,-0.005955936
322,3.2199999999999753,-0.31544524,-0.3902057,-0.8426101,0.07437284,-0.035277467,0.0027488936
323,3.229999999999975,-0.27318668,-0.43331796,-0.8465737,0.09590584,0.019700404,0.02107485
324,3.239999999999975,-0.27318668,-0.43331796,-0.8465737,0.085673854,0.061239243,0.038026363
325,3.2499999999999747,-0.25068536,-0.46923468,-0.8351707,0.07574729,0.08307768,0.047647487
326,3.2599999999999745,-0.24873403,-0.5251526,-0.80425423,0.08903361,0.08323039,0.056199603
327,3.2699999999999743,-0.26336902,-0.5188717,-0.804925,0.17379116,0.054519724,0.07162395
328,3.279999999999974,-0.26440567,-0.49356538,-0.81504756,0.21884248,0.07803804,0.087659165
329,3.289999999999974,-0.26440567,-0.46490517,-0.82803607,0.21884248,0.07803804,0.087659165
330,3.2999999999999736,-0.26367393,-0.43124464,-0.82846296,0.18478674,0.19257528,0.10781772
331,3.3099999999999734,-0.2711134,-0.42636633,-0.81638914,0.17211129,0.24617869,0.105068825
332,3.319999999999973,-0.28385803,-0.43472052,-0.80230296,0.20219639,0.3013093,0.111177474
333,3.329999999999973,-0.28263843,-0.4556973,-0.8161452,0.25350907,0.32360587,0.11866058
334,3.3399999999999728,-0.28263843,-0.4556973,-0.8161452,0.25350907,0.32360587,0.11866058
335,3.3499999999999726,-0.26983282,-0.49618748,-0.8569402,0.23533584,0.1330159,0.11438452
336,3.3599999999999723,-0.26775953,-0.509359,-0.8582208,0.21975878,0.09025534,0.10842858
337,3.369999999999972,-0.27434528,-0.541556,-0.8632821,0.14446963,0.029932396,0.086132
338,3.379999999999972,-0.28660208,-0.54893446,-0.85254973,0.06811147,0.087964594,0.07070765
339,3.3899999999999717,-0.28788266,-0.538629,-0.82980454,0.012675454,0.15714508,0.050549097
340,3.3999999999999715,-0.2952611,-0.5073467,-0.79126567,-0.01572978,0.20326541,0.008552114
341,3.4099999999999713,-0.2952611,-0.5073467,-0.79126567,-0.004428773,0.20952678,-0.02076942
342,3.419999999999971,-0.30599347,-0.47386914,-0.80736417,0.061850104,0.2098322,-0.06429356
343,3.429999999999971,-0.30599347,-0.47386914,-0.80736417,0.105832405,0.23701571,-0.06658431
344,3.4399999999999706,-0.2965417,-0.4797231,-0.8276703,0.118966006,0.25289822,-0.027488936
345,3.4499999999999704,-0.19775544,-0.5196035,-0.8374269,0.09437868,0.20525073,0.03863723
346,3.45999999999997,-0.14708175,-0.53289694,-0.8265117,0.013897184,-0.0125227375,0.04520403
347,3.46999999999997,-0.17897385,-0.49795586,-0.8233407,-0.029932396,-0.015271631,0.0009162979
348,3.47999999999997,-0.17897385,-0.49795586,-0.8233407,-0.029932396,-0.015271631,0.0009162979
349,3.4899999999999696,-0.31221333,-0.3784367,-0.82956064,-0.11804971,0.15500705,-0.011453724
350,3.4999999999999694,-0.34410545,-0.35178882,-0.82096255,-0.12461651,0.20143281,-0.0030543262
351,3.509999999999969,-0.36727753,-0.33971494,-0.80333954,-0.098043874,0.22968534,0.03604105
352,3.519999999999969,-0.32568973,-0.37258273,-0.79809535,-0.061239243,0.19456059,0.075594574
353,3.5299999999999687,-0.26940596,-0.41410953,-0.80193704,-0.021991149,0.14248432,0.111635625
354,3.5399999999999685,-0.24336785,-0.45100194,-0.80022967,0.004886922,0.13775012,0.13500121
355,3.5499999999999683,-0.22007383,-0.49332145,-0.8106571,0.019547688,0.14523321,0.14859296
356,3.559999999999968,-0.20245083,-0.54350734,-0.837183,0.03023783,0.15745051,0.16691893
357,3.569999999999968,-0.20184104,-0.5816193,-0.88053924,0.024129177,0.15867224,0.17058411
358,3.5799999999999677,-0.2086707,-0.59497374,-0.9209074,-0.0062613687,0.14019357,0.15577064
359,3.5899999999999674,-0.23324533,-0.5791801,-0.9564582,-0.03283401,0.11682798,0.12629639
360,3.5999999999999672,-0.25001457,-0.54369026,-0.9604219,-0.08093964,0.08582657,0.024587326
361,3.609999999999967,-0.28995594,-0.43222034,-0.9261516,-0.08093964,0.08582657,0.024587326
362,3.619999999999967,-0.28995594,-0.43222034,-0.9261516,-0.08093964,0.08582657,0.024587326
363,3.6299999999999666,-0.28995594,-0.43222034,-0.9261516,-0.08093964,0.08582657,0.024587326
364,3.6399999999999664,-0.30050534,-0.31806734,-0.86480653,-0.061086524,0.039553523,0.040775254
365,3.649999999999966,-0.1791568,-0.43953782,-0.8382196,-0.100792766,-0.06566802,0.040927973
366,3.659999999999966,-0.17104656,-0.5067369,-0.83096313,-0.13958271,-0.10629055,0.025045475
367,3.6699999999999657,-0.17104656,-0.5067369,-0.83096313,-0.18845193,-0.08582657,-0.020616703
368,3.6799999999999655,-0.19873111,-0.61942637,-0.822548,-0.18845193,-0.08582657,-0.020616703
369,3.6899999999999653,-0.26940596,-0.649733,-0.85407424,-0.1853976,0.032528576,-0.055436023
370,3.699999999999965,-0.28928518,-0.46472222,-0.87944156,-0.16905695,0.0032070426,-0.09682214
371,3.709999999999965,-0.2950782,-0.4106337,-0.86992884,-0.16249016,-0.03940081,-0.119729586
372,3.7199999999999647,-0.28117493,-0.4021576,-0.8455371,-0.19028452,-0.08475755,-0.12217305
373,3.7299999999999645,-0.24678269,-0.42478088,-0.81035215,-0.23655757,-0.11560625,-0.11988231
374,3.7399999999999642,-0.21684194,-0.46728337,-0.7563856,-0.27183503,-0.15363261,-0.121256754
375,3.749999999999964,-0.19653587,-0.5376533,-0.7016873,-0.27183503,-0.15363261,-0.121256754
376,3.759999999999964,-0.18373023,-0.58722943,-0.6844302,-0.24587326,-0.18035796,-0.12583824
377,3.7699999999999636,-0.17464434,-0.5989374,-0.70900476,-0.10308351,-0.14156802,-0.09941832
378,3.7799999999999634,-0.1656804,-0.59082717,-0.7791918,-0.0729984,-0.08277224,-0.07742717
379,3.789999999999963,-0.15994836,-0.5753385,-0.8315119,-0.09162979,-0.054825157,-0.06307184
380,3.799999999999963,-0.16342416,-0.52588433,-0.90426004,-0.2133447,-0.020158553,-0.038179077
381,3.8099999999999627,-0.16976601,-0.4841136,-0.92968833,-0.28802297,-0.024281893,-0.03268129
382,3.8199999999999625,-0.21312219,-0.39423034,-0.9317007,-0.40133846,-0.095753126,-0.036651913
383,3.8299999999999623,-0.24489233,-0.35434994,-0.8993817,-0.43142357,-0.16798794,-0.04260785
384,3.839999999999962,-0.26733267,-0.34020278,-0.85639143,-0.41157046,-0.21792617,-0.037415497
385,3.849999999999962,-0.2622714,-0.37611952,-0.8052299,-0.32467487,-0.22708915,-0.0062613687
386,3.8599999999999617,-0.26239336,-0.39423034,-0.82840204,-0.118202426,-0.2133447,0.081855945
387,3.8699999999999615,-0.26239336,-0.39423034,-0.82840204,-0.118202426,-0.2133447,0.081855945
388,3.8799999999999613,-0.26184455,-0.42746398,-0.86700183,-0.08552113,-0.18142697,0.11133019
389,3.889999999999961,-0.2550149,-0.46356362,-0.8942595,-0.04627304,-0.0786489,0.15515977
390,3.899999999999961,-0.26239336,-0.4543558,-0.8949303,-0.04627304,-0.0786489,0.15515977
391,3.9099999999999606,-0.2789187,-0.42526874,-0.91444355,0.04062254,-0.051159963,0.15195273
392,3.9199999999999604,-0.29648072,-0.39624262,-0.9329813,0.07849618,-0.040011674,0.1386664
393,3.92999999999996,-0.29648072,-0.39624262,-0.9329813,0.09193522,-0.033750303,0.13255776
394,3.93999999999996,-0.29934675,-0.3913643,-0.942372,0.09193522,-0.033750303,0.13255776
395,3.9499999999999598,-0.2830043,-0.40258446,-0.9610317,0.06872234,-0.0071776668,0.09437868
396,3.9599999999999596,-0.26946694,-0.41850004,-0.9407256,0.02977968,-0.012370021,0.058643065
397,3.9699999999999593,-0.26532036,-0.43392777,-0.90346736,0.02367103,-0.0050396384,0.037873644
398,3.979999999999959,-0.26458862,-0.44167212,-0.87852687,0.049480084,0.027947085,0.004886922
399,3.989999999999959,-0.27062553,-0.4411233,-0.85907453,0.09208794,0.07452556,-0.019547688
400,3.9999999999999587,-0.3047739,-0.42770788,-0.86498946,0.15928312,0.12873985,-0.056046885
401,4.009999999999959,-0.32800692,-0.42398816,-0.87840486,0.2180789,0.14737125,-0.08384126
402,4.019999999999959,-0.32800692,-0.42398816,-0.87840486,0.2648101,0.14263703,-0.10308351
403,4.0299999999999585,-0.36105764,-0.4276469,-0.89084464,0.30925053,0.09773844,-0.10629055
404,4.039999999999958,-0.35672814,-0.4300251,-0.8834662,0.32284227,0.06490443,-0.07925977
405,4.049999999999958,-0.35672814,-0.4300251,-0.8834662,0.3277292,0.03573562,-0.046120327
406,4.059999999999958,-0.3281289,-0.43325698,-0.8651115,0.31597003,-0.0983493,0.05467244
407,4.069999999999958,-0.27416235,-0.46155134,-0.8344999,0.31597003,-0.0983493,0.05467244
408,4.079999999999957,-0.266357,-0.4809427,-0.8200479,0.2695443,-0.118202426,0.04596761
409,4.089999999999957,-0.266357,-0.4809427,-0.8200479,0.26236662,-0.11102476,0.01160644
410,4.099999999999957,-0.266357,-0.4809427,-0.8200479,0.30176744,-0.12308934,-0.01740966
411,4.109999999999957,-0.29330978,-0.5260063,-0.82712144,0.3462079,-0.16432275,-0.019394971
412,4.119999999999957,-0.29995653,-0.51393247,-0.85608655,0.36254853,-0.23365596,0.005497787
413,4.129999999999956,-0.3033104,-0.4911262,-0.87535596,0.3368922,-0.2582433,0.02611449
414,4.139999999999956,-0.3029445,-0.4686859,-0.87712437,0.30497447,-0.24251351,0.027183503
415,4.149999999999956,-0.29489526,-0.43350092,-0.86968493,0.21151209,-0.14676037,-0.039858956
416,4.159999999999956,-0.26733267,-0.39630362,-0.8718192,0.21151209,-0.14676037,-0.039858956
417,4.1699999999999555,-0.26733267,-0.39630362,-0.8718192,0.13194689,-0.13515393,-0.0759
418,4.179999999999955,-0.26221043,-0.39233997,-0.8503545,0.011911872,-0.122478485,-0.100029185
419,4.189999999999955,-0.257576,-0.39612067,-0.8229748,-0.035888333,-0.11682798,-0.101556346
420,4.199999999999955,-0.24659975,-0.41782925,-0.7894363,-0.08124508,-0.118202426,-0.08964448
421,4.209999999999955,-0.2248302,-0.47167388,-0.73839676,-0.088422745,-0.12568553,-0.10919216
422,4.2199999999999545,-0.24544115,-0.4966753,-0.7558368,-0.08964448,-0.1049161,-0.11789699
423,4.229999999999954,-0.24544115,-0.4966753,-0.7558368,-0.08964448,-0.1049161,-0.11789699
424,4.239999999999954,-0.28068712,-0.5234452,-0.8240725,-0.11071932,-0.081855945,-0.120493166
425,4.249999999999954,-0.28068712,-0.5234452,-0.8240725,-0.11071932,-0.081855945,-0.120493166
426,4.259999999999954,-0.30690816,-0.51295674,-0.84102464,-0.12034045,-0.1001819,-0.13026701
427,4.269999999999953,-0.30690816,-0.51295674,-0.84102464,-0.14844026,-0.124769226,-0.09972375
428,4.279999999999953,-0.29349273,-0.50887114,-0.8190112,-0.14844026,-0.124769226,-0.09972375
429,4.289999999999953,-0.21330512,-0.52375007,-0.73711616,-0.1553125,-0.0795652,-0.049785517
430,4.299999999999953,-0.21330512,-0.52375007,-0.73711616,-0.1553125,-0.0795652,-0.049785517
431,4.3099999999999525,-0.19104773,-0.52984804,-0.71735895,-0.07070765,-0.062002823,-0.06154467
432,4.319999999999952,-0.21818347,-0.51112735,-0.7480924,-0.034055736,-0.06047566,-0.060170226
433,4.329999999999952,-0.21818347,-0.51112735,-0.7480924,-0.034055736,-0.06047566,-0.060170226
434,4.339999999999952,-0.2883705,-0.4353303,-0.83986604,-0.026725354,-0.095753126,-0.007330383
435,4.349999999999952,-0.29806617,-0.42618343,-0.8493178,-0.0364992,-0.106901415,0.004886922
436,4.3599999999999515,-0.304347,-0.41990253,-0.8591965,-0.07086037,-0.13988814,0.05009095
437,4.369999999999951,-0.28788266,-0.43240327,-0.83980507,-0.094225965,-0.16081028,0.09040806
438,4.379999999999951,-0.25013652,-0.4481359,-0.80327857,-0.10048734,-0.15225816,0.1049161
439,4.389999999999951,-0.23428197,-0.47716197,-0.7642519,-0.07742717,-0.108123146,0.09758572
440,4.399999999999951,-0.30824968,-0.5142983,-0.80157113,-0.049480084,-0.06291912,0.07925977
441,4.40999999999995,-0.30824968,-0.5142983,-0.80157113,-0.004581489,-0.011301007,0.076816306
442,4.41999999999995,-0.3231286,-0.49405318,-0.84096366,0.007788532,-0.0355829,0.09285152
443,4.42999999999995,-0.33233646,-0.4446601,-0.924993,-0.02107485,-0.09560041,0.077121735
444,4.43999999999995,-0.32879966,-0.43935493,-0.94157934,-0.02107485,-0.09560041,0.077121735
445,4.4499999999999496,-0.32325056,-0.45539245,-0.94816506,-0.106901415,-0.0693332,0.045814894
446,4.459999999999949,-0.3052617,-0.4931995,-0.9235905,-0.1525636,-0.007483099,0.028099801
447,4.469999999999949,-0.30020046,-0.5213109,-0.87742925,-0.1908954,0.060628377,-0.0053450707
448,4.479999999999949,-0.30483487,-0.52759176,-0.8462079,-0.19456059,0.09712757,-0.039858956
449,4.489999999999949,-0.31483543,-0.5144203,-0.82888985,-0.18112154,0.104610674,-0.053145275
450,4.4999999999999485,-0.32953143,-0.49893156,-0.82828003,-0.14676037,0.101098195,-0.05787948
451,4.509999999999948,-0.32947046,-0.48338187,-0.8426101,-0.13316862,0.07925977,-0.046731193
452,4.519999999999948,-0.32947046,-0.48338187,-0.8426101,-0.12308934,0.030543262,-0.047647487
453,4.529999999999948,-0.3031884,-0.4812476,-0.8452932,-0.09560041,-0.023060163,-0.056963183
454,4.539999999999948,-0.28751677,-0.48265013,-0.8465737,-0.07574729,-0.058337633,-0.06169739
455,4.549999999999947,-0.25696623,-0.456612,-0.8514522,-0.065515295,-0.09132435,-0.07498371
456,4.559999999999947,-0.25001457,-0.4253297,-0.8327925,-0.10369437,-0.058643065,-0.08628472
457,4.569999999999947,-0.25001457,-0.4253297,-0.8327925,-0.13347405,-0.0038179078,-0.095294975
458,4.579999999999947,-0.25001457,-0.4253297,-0.8327925,-0.13347405,-0.0038179078,-0.095294975
459,4.589999999999947,-0.2528806,-0.40380403,-0.80333954,-0.13347405,-0.0038179078,-0.095294975
460,4.599999999999946,-0.2822116,-0.43917197,-0.8216943,0.016493361,0.04596761,-0.050549097
461,4.609999999999946,-0.2822116,-0.43917197,-0.8216943,0.016493361,0.04596761,-0.050549097
462,4.619999999999946,-0.2294646,-0.50679785,-0.88810056,-0.033292156,-0.03481932,-0.011301007
463,4.629999999999946,-0.2573321,-0.5067369,-0.82888985,-0.033292156,-0.03481932,-0.011301007
464,4.6399999999999455,-0.2948343,-0.47960114,-0.80333954,0.002443461,-0.058948494,-0.017104227
465,4.649999999999945,-0.32440916,-0.45795357,-0.8291947,0.069485925,-0.018325957,-0.008246681
466,4.659999999999945,-0.32440916,-0.45795357,-0.8291947,0.069485925,-0.018325957,-0.008246681
467,4.669999999999945,-0.29806617,-0.4589292,-0.87962455,0.08445212,0.08445212,0.02565634
468,4.679999999999945,-0.29806617,-0.4589292,-0.87962455,0.08445212,0.08445212,0.02565634
469,4.689999999999944,-0.28026026,-0.49021152,-0.78791183,0.091477074,0.13316862,0.01450805
470,4.699999999999944,-0.30245668,-0.4989925,-0.75736123,0.19150625,0.18753563,0.007483099
471,4.709999999999944,-0.32197002,-0.49862665,-0.75364155,0.31581733,0.2591596,0.01786781
472,4.719999999999944,-0.33831242,-0.5046636,-0.77516717,0.49006665,0.35918877,0.049021937
473,4.729999999999944,-0.34331274,-0.50771254,-0.8127304,0.49006665,0.35918877,0.049021937
474,4.739999999999943,-0.32148215,-0.5130787,-0.8494398,0.6789767,0.41416663,0.12705997
475,4.749999999999943,-0.2819067,-0.50942,-0.8559036,0.7087564,0.37659842,0.12873985
476,4.759999999999943,-0.2581858,-0.49466303,-0.84956175,0.7324274,0.33765575,0.108123146
477,4.769999999999943,-0.24800226,-0.47075918,-0.8609649,0.7538077,0.3034473,0.06688975
478,4.7799999999999425,-0.24007498,-0.44496498,-0.8879787,0.7466301,0.2826779,0.041233405
479,4.789999999999942,-0.23983108,-0.40612125,-0.9347496,0.6968445,0.2591596,0.020158553
480,4.799999999999942,-0.23452587,-0.37544873,-0.95115304,0.57986385,0.2264783,-0.05390886
481,4.809999999999942,-0.20921952,-0.40752378,-0.9724348,0.57986385,0.2264783,-0.05390886
482,4.819999999999942,-0.20921952,-0.40752378,-0.9724348,0.5172501,0.27000242,-0.08124508
483,4.8299999999999415,-0.20921952,-0.40752378,-0.9724348,0.46410486,0.3368922,-0.080634214
484,4.839999999999941,-0.19635291,-0.44087937,-0.9275541,0.35643986,0.420428,-0.0070249503
485,4.849999999999941,-0.19336495,-0.6098527,-0.73101825,0.29764408,0.46792278,0.14034629
486,4.859999999999941,-0.17025384,-0.6393056,-0.6846131,0.29092458,0.46318856,0.23335053
487,4.869999999999941,-0.11976309,-0.68217397,-0.6397324,0.29016098,0.36193767,0.3022256
488,4.87999999999994,-0.07646788,-0.6979676,-0.6186337,0.29016098,0.36193767,0.3022256
489,4.88999999999994,-0.07646788,-0.6979676,-0.6186337,0.258396,0.17745635,0.2967278
490,4.89999999999994,-0.03518498,-0.6606483,-0.6249755,0.11636983,-0.026267206,0.14248432
491,4.90999999999994,-0.08512692,-0.56460613,-0.66369724,0.00015271631,0.04841107,0.025198191
492,4.9199999999999395,-0.08512692,-0.56460613,-0.66369724,0.00015271631,0.04841107,0.025198191
493,4.929999999999939,-0.26044202,-0.37880257,-0.74229944,-0.23854288,0.32895094,0.03848451
494,4.939999999999939,-0.30068827,-0.36892396,-0.7686424,-0.313832,0.37614027,0.09040806
495,4.949999999999939,-0.37343642,-0.38892514,-0.7920584,-0.4353942,0.45372015,0.22388211
496,4.959999999999939,-0.40837747,-0.43295208,-0.78309447,-0.45921794,0.4914411,0.27015516
497,4.9699999999999385,-0.42587852,-0.4753936,-0.7603492,-0.45448375,0.4915938,0.29947668
498,4.979999999999938,-0.43075684,-0.5221036,-0.73254275,-0.41599923,0.3831652,0.34788775
499,4.989999999999938,-0.42819571,-0.5702772,-0.71388316,-0.37614027,0.28221974,0.3914119
500,4.999999999999938,-0.4167926,-0.6111332,-0.7122977,-0.25686884,0.14156802,0.4990769
501,5.009999999999938,-0.38331506,-0.5998521,-0.75205606,-0.15928312,0.1470658,0.5487097
502,5.019999999999937,-0.2851386,-0.49606553,-0.933591,-0.0571159,0.25152376,0.5354234
503,5.029999999999937,-0.2851386,-0.49606553,-0.933591,-0.0571159,0.25152376,0.5354234
504,5.039999999999937,-0.2359284,-0.4555144,-1.0042659,-0.12156218,0.22907446,0.47510046
505,5.049999999999937,-0.19684075,-0.43929392,-1.0250598,-0.269697,0.1656972,0.33383787
506,5.0599999999999365,-0.20964637,-0.4926507,-0.92901766,-0.269697,0.1656972,0.33383787
507,5.069999999999936,-0.20964637,-0.4926507,-0.92901766,-0.269697,0.1656972,0.33383787
508,5.079999999999936,-0.24538018,-0.5336897,-0.89377165,-0.3736968,0.07544186,0.02397646
509,5.089999999999936,-0.25775895,-0.53533614,-0.91773653,-0.3022256,0.0842994,-0.051465396
510,5.099999999999936,-0.25367334,-0.51881075,-0.9476163,-0.19517145,0.047036625,-0.099571034
511,5.1099999999999355,-0.24184339,-0.48960173,-0.9771302,-0.0842994,0.0061086523,-0.13545936
512,5.119999999999935,-0.22958656,-0.44283074,-1.015547,0.006872234,-0.03970624,-0.18112154
513,5.129999999999935,-0.23342825,-0.39179114,-1.0503662,0.036957346,-0.10064005,-0.2209805
514,5.139999999999935,-0.23714797,-0.33678794,-1.0501223,-0.041691553,-0.19394971,-0.25289822
515,5.149999999999935,-0.24727054,-0.31629896,-1.0260965,-0.08445212,-0.21135938,-0.25320363
516,5.159999999999934,-0.26013714,-0.32001868,-0.9564582,-0.24236079,-0.24770586,-0.22342396
517,5.169999999999934,-0.24666072,-0.3612406,-0.91590714,-0.31978795,-0.23350324,-0.20189096
518,5.179999999999934,-0.24666072,-0.3612406,-0.91590714,-0.38240165,-0.21303925,-0.19868392
519,5.189999999999934,-0.16818054,-0.51692045,-0.82059664,-0.38240165,-0.21303925,-0.19868392
520,5.199999999999934,-0.15281379,-0.5434463,-0.778704,-0.344528,-0.15806139,-0.2489276
521,5.209999999999933,-0.163912,-0.52057916,-0.75864184,-0.09330966,-0.16249016,-0.27183503
522,5.219999999999933,-0.19537725,-0.45838037,-0.76797163,-0.09330966,-0.16249016,-0.27183503
523,5.229999999999933,-0.2280621,-0.40264544,-0.7972416,-0.0036651916,-0.20708331,-0.25259277
524,5.239999999999933,-0.26501545,-0.35282546,-0.8362683,0.037110064,-0.2751948,-0.22159137
525,5.2499999999999325,-0.28733385,-0.36807024,-0.8391954,-0.062002823,-0.34284812,-0.14721853
526,5.259999999999932,-0.2591005,-0.40288937,-0.81266934,-0.1207986,-0.35537085,-0.118202426
527,5.269999999999932,-0.2591005,-0.40288937,-0.81266934,-0.1207986,-0.35537085,-0.118202426
528,5.279999999999932,-0.23141594,-0.44063547,-0.78022844,-0.16875152,-0.35445455,-0.09896017
529,5.289999999999932,-0.23141594,-0.44063547,-0.78022844,-0.16875152,-0.35445455,-0.09896017
530,5.299999999999931,-0.21708584,-0.5132617,-0.8040713,-0.14034629,-0.23945917,-0.0870483
531,5.309999999999931,-0.23867247,-0.5218597,-0.84614694,-0.03756821,-0.04718934,-0.11652254
532,5.319999999999931,-0.23867247,-0.5218597,-0.84614694,-0.03756821,-0.04718934,-0.11652254
533,5.329999999999931,-0.28776067,-0.54808074,-0.8862102,-0.038331795,-0.11071932,-0.0917825
534,5.339999999999931,-0.28776067,-0.54808074,-0.8862102,-0.05665775,-0.13881913,-0.06734789
535,5.34999999999993,-0.2728208,-0.5741799,-0.8482203,-0.099571034,-0.18051068,-0.00870483
536,5.35999999999993,-0.24403864,-0.5763141,-0.8055348,-0.11560625,-0.18417588,0.020616703
537,5.36999999999993,-0.21525647,-0.5584472,-0.766935,-0.10995574,-0.14996742,0.03756821
538,5.37999999999993,-0.20293866,-0.5300309,-0.74912906,-0.08353582,-0.07284568,0.027641652
539,5.3899999999999295,-0.20391434,-0.5105786,-0.75620264,-0.07009678,-0.041080687,0.0154243475
540,5.399999999999929,-0.24519724,-0.4656369,-0.80346155,-0.028863383,0.03481932,-0.022602014
541,5.409999999999929,-0.28093103,-0.44508693,-0.8498667,-0.019242255,0.054367006,-0.022602014
542,5.419999999999929,-0.29282197,-0.43502536,-0.8818197,-0.022907447,0.03848451,0.0030543262
543,5.429999999999929,-0.27562585,-0.44276974,-0.89322287,-0.022907447,0.03848451,0.0030543262
544,5.4399999999999284,-0.2619665,-0.45728278,-0.8841369,-0.043829583,-0.024892759,0.09743301
545,5.449999999999928,-0.22842796,-0.5041757,-0.84474444,-0.043829583,-0.024892759,0.09743301
546,5.459999999999928,-0.22647662,-0.5098468,-0.7934609,-0.050396383,0.027488936,0.09712757
547,5.469999999999928,-0.25800288,-0.4812476,-0.77858204,-0.020922136,0.04230242,0.0777326
548,5.479999999999928,-0.28544348,-0.4444162,-0.7870581,0.034208454,0.04138612,0.06704246
549,5.489999999999927,-0.30343235,-0.37740007,-0.82901174,0.10522154,0.043066,0.06994407
550,5.499999999999927,-0.30343235,-0.37740007,-0.82901174,0.10522154,0.043066,0.06994407
551,5.509999999999927,-0.29782224,-0.34581286,-0.87468517,0.12217305,0.06154467,0.076052725
552,5.519999999999927,-0.25836873,-0.35648423,-0.91798043,0.0346666,0.12935072,0.09239337
553,5.5299999999999265,-0.25836873,-0.35648423,-0.91798043,0.0346666,0.12935072,0.09239337
554,5.539999999999926,-0.25836873,-0.35648423,-0.91798043,0.0346666,0.12935072,0.09239337
555,5.549999999999926,-0.22135438,-0.5081394,-0.8709654,0.011301007,0.13530666,0.08979719
556,5.559999999999926,-0.24477036,-0.60521823,-0.8573061,0.04138612,0.084146686,0.04734206
557,5.569999999999926,-0.24568506,-0.6008887,-0.8695629,0.085673854,0.06734789,0.047647487
558,5.5799999999999255,-0.24178241,-0.5813754,-0.88145393,0.106595986,0.051618114,0.03573562
559,5.589999999999925,-0.25477096,-0.51716435,-0.8862712,0.11942416,0.00030543262,0.00045814895
560,5.599999999999925,-0.27074748,-0.45972195,-0.8841979,0.11942416,0.00030543262,0.00045814895
561,5.609999999999925,-0.2830043,-0.39496207,-0.86273324,0.1085813,-0.004581489,-0.008093964
562,5.619999999999925,-0.28013828,-0.33831242,-0.84437853,0.120493166,0.034513887,-0.013133603
563,5.629999999999924,-0.27727225,-0.32416525,-0.8440126,0.12767084,0.055283304,-0.0106901415
564,5.639999999999924,-0.24373372,-0.34111744,-0.8776122,0.13820826,0.11148291,0.014813482
565,5.649999999999924,-0.21757366,-0.36489934,-0.8979792,0.13820826,0.11148291,0.014813482
566,5.659999999999924,-0.17720546,-0.44862375,-0.9355424,-0.0729984,0.036957346,-0.03145956
567,5.6699999999999235,-0.1884866,-0.48612595,-0.90352833,-0.0729984,0.036957346,-0.03145956
568,5.679999999999923,-0.21324414,-0.5075296,-0.85041547,-0.035124753,-0.08002335,-0.052687127
569,5.689999999999923,-0.269284,-0.50429773,-0.80663246,0.040927973,-0.11133019,-0.041080687
570,5.699999999999923,-0.30898145,-0.47594243,-0.85755,0.040927973,-0.11133019,-0.041080687
571,5.709999999999923,-0.28324825,-0.46618572,-0.8959669,0.2443461,-0.15515977,-0.0053450707
572,5.7199999999999225,-0.26458862,-0.4612464,-0.913346,0.2443461,-0.15515977,-0.0053450707
573,5.729999999999922,-0.25781992,-0.4616733,-0.9049918,0.20922135,-0.17363845,-0.025198191
574,5.739999999999922,-0.28263843,-0.4709421,-0.85492796,0.1957823,-0.18112154,-0.027641652
575,5.749999999999922,-0.31367683,-0.4744179,-0.8220601,0.21166481,-0.1919644,-0.01160644
576,5.759999999999922,-0.3420931,-0.4735642,-0.80870575,0.28130344,-0.20372356,0.021991149
577,5.769999999999921,-0.35313037,-0.47758886,-0.8214504,0.28130344,-0.20372356,0.021991149
578,5.779999999999921,-0.33526346,-0.48197934,-0.8543791,0.4222606,-0.25518894,0.08903361
579,5.789999999999921,-0.32386038,-0.4873455,-0.8698068,0.43203443,-0.25870144,0.095294975
580,5.799999999999921,-0.24800226,-0.50185853,-0.8435248,0.3727805,-0.16646078,0.060322944
581,5.809999999999921,-0.24800226,-0.50185853,-0.8435248,0.30466905,-0.04734206,0.026267206
582,5.81999999999992,-0.245868,-0.51295674,-0.8058397,0.23777929,0.076816306,-0.00030543262
583,5.82999999999992,-0.24849011,-0.51484716,-0.7833994,0.21273382,0.1375974,-0.004428773
584,5.83999999999992,-0.2555027,-0.51722527,-0.7605322,0.21135938,0.16691893,-0.0032070426
585,5.84999999999992,-0.2595883,-0.50021213,-0.7568734,0.2565634,0.14278975,0.028863383
586,5.8599999999999195,-0.23806266,-0.48551616,-0.76906925,0.25228736,0.07086037,0.0364992
587,5.869999999999919,-0.19958481,-0.48136955,-0.7701669,0.22220223,-0.014813482,0.042760566
588,5.879999999999919,-0.18251066,-0.50655395,-0.7637641,0.17348573,-0.0346666,0.03894266
589,5.889999999999919,-0.17141244,-0.53966564,-0.7730939,0.12308934,-0.011759156,0.028710667
590,5.899999999999919,-0.19446257,-0.57106996,-0.7929121,0.06414085,0.019547688,0.012370021
591,5.909999999999918,-0.23861149,-0.5889368,-0.80285174,0.06414085,0.019547688,0.012370021
592,5.919999999999918,-0.25971028,-0.5714967,-0.7954732,-0.074067414,0.0076358155,-0.014202617
593,5.929999999999918,-0.280992,-0.5311286,-0.79083884,-0.08827003,-0.026725354,-0.03863723
594,5.939999999999918,-0.29873693,-0.48106465,-0.80138826,-0.104610674,-0.106137834,-0.07880162
595,5.949999999999918,-0.30343235,-0.42459795,-0.8011443,-0.11071932,-0.11224649,-0.07513642
596,5.959999999999917,-0.29312685,-0.39423034,-0.77608186,-0.12599096,-0.05375614,-0.05467244
597,5.969999999999917,-0.2787358,-0.40185273,-0.7476046,-0.13408493,0.020616703,-0.034208454
598,5.979999999999917,-0.2651374,-0.4416111,-0.72309095,-0.12492194,0.10125092,-0.013744468
599,5.989999999999917,-0.2549539,-0.51173717,-0.7250423,-0.02611449,0.13133603,0.011301007
600,5.9999999999999165,-0.2523318,-0.5600937,-0.77498424,-0.02611449,0.13133603,0.011301007
601,6.009999999999916,-0.25672227,-0.5862537,-0.84498835,0.020922136,0.062002823,0.013133603
602,6.019999999999916,-0.25672227,-0.5862537,-0.84498835,0.020922136,0.062002823,0.013133603
603,6.029999999999916,-0.23519666,-0.54399514,-0.93109095,0.020922136,0.062002823,0.013133603
604,6.039999999999916,-0.22489117,-0.40904826,-0.96816623,-0.28695396,-0.08659015,-0.13988814
605,6.0499999999999154,-0.22489117,-0.40904826,-0.96816623,-0.40653083,-0.001985312,-0.13255776
606,6.059999999999915,-0.29270002,-0.46295384,-0.7825456,-0.40469822,0.041996986,-0.077579886
607,6.069999999999915,-0.29288295,-0.49545574,-0.74071395,-0.40469822,0.041996986,-0.077579886
608,6.079999999999915,-0.27495506,-0.5499711,-0.7452264,-0.15775596,0.049938235,0.012064588
609,6.089999999999915,-0.26836932,-0.5558861,-0.77089864,-0.10522154,0.049021937,0.020922136
610,6.099999999999914,-0.26836932,-0.5558861,-0.77089864,-0.038789943,0.018936822,0.009162978
611,6.109999999999914,-0.22409843,-0.53314084,-0.9203586,-0.07513642,-0.008246681,-0.014202617
612,6.119999999999914,-0.20556077,-0.51411533,-0.9355424,-0.15317446,-0.03924809,-0.035277467
613,6.129999999999914,-0.2093415,-0.50716376,-0.90102816,-0.25320363,-0.06918049,-0.063988134
614,6.1399999999999135,-0.22050068,-0.53192127,-0.84139055,-0.30848694,-0.05009095,-0.07666359
615,6.149999999999913,-0.23629428,-0.5611303,-0.8036444,-0.3173445,-0.02076942,-0.068264194
616,6.159999999999913,-0.24574605,-0.582534,-0.77474034,-0.29779682,-0.009773844,-0.062002823
617,6.169999999999913,-0.27215004,-0.5850951,-0.76522756,-0.25366178,-0.022907447,-0.055588737
618,6.179999999999913,-0.30392018,-0.55558115,-0.77614284,-0.20937407,-0.040927973,-0.04795292
619,6.1899999999999125,-0.31416467,-0.52064013,-0.790351,-0.17256944,-0.057726767,-0.043982297
620,6.199999999999912,-0.3020908,-0.4349034,-0.8341341,-0.17256944,-0.057726767,-0.043982297
621,6.209999999999912,-0.28117493,-0.38075393,-0.8589525,-0.09758572,-0.09025534,-0.055588737
622,6.219999999999912,-0.23208672,-0.37410718,-0.84980565,-0.108123146,-0.002443461,-0.038789943
623,6.229999999999912,-0.21598822,-0.39496207,-0.8410857,-0.108123146,-0.002443461,-0.038789943
624,6.239999999999911,-0.21598822,-0.39496207,-0.8410857,-0.093767814,0.014813482,-0.0021380284
625,6.249999999999911,-0.20208496,-0.53033584,-0.8348658,-0.076358154,-0.025350908,-0.0030543262
626,6.259999999999911,-0.20208496,-0.53033584,-0.8348658,-0.076358154,-0.025350908,-0.0030543262
627,6.269999999999911,-0.23086715,-0.57588726,-0.85608655,-0.0290161,-0.106901415,-0.02443461
628,6.2799999999999105,-0.2470876,-0.5302139,-0.86700183,-0.0065668016,-0.1591304,-0.0290161
629,6.28999999999991,-0.27684543,-0.44124526,-0.8703556,0.019700404,-0.22006421,-0.035888333
630,6.29999999999991,-0.2970905,-0.37605852,-0.8820636,0.027183503,-0.2322815,-0.050549097
631,6.30999999999991,-0.28239453,-0.36483836,-0.89377165,0.027183503,-0.2322815,-0.050549097
632,6.31999999999991,-0.25788093,-0.38563228,-0.895723,-0.054825157,-0.089949906,-0.023518313
633,6.3299999999999095,-0.2570272,-0.42112213,-0.86602616,-0.11407909,-0.03772093,-0.022907447
634,6.339999999999909,-0.2734306,-0.46972254,-0.8032176,-0.09819659,-0.03283401,-0.012980887
635,6.349999999999909,-0.28233355,-0.49551672,-0.775716,-0.0125227375,-0.043218717,0.010842858
636,6.359999999999909,-0.26763758,-0.48197934,-0.84004897,0.17333302,-0.024892759,0.04260785
637,6.369999999999909,-0.26763758,-0.48197934,-0.84004897,0.17333302,-0.024892759,0.04260785
638,6.379999999999908,-0.26788148,-0.46990547,-0.872368,0.18417588,-0.007788532,0.03634648
639,6.389999999999908,-0.2648935,-0.4431356,-0.89163744,0.111941054,0.005192355,0.018784106
640,6.399999999999908,-0.2704426,-0.44508693,-0.872185,0.02275473,0.00580322,-0.0038179078
641,6.409999999999908,-0.30520073,-0.5104566,-0.81766963,-0.016493361,0.01282817,-0.012675454
642,6.419999999999908,-0.30520073,-0.5104566,-0.81766963,-0.02031127,0.004428773,0.020463986
643,6.429999999999907,-0.3031884,-0.53960466,-0.8041323,-0.02031127,0.004428773,0.020463986
644,6.439999999999907,-0.28702894,-0.58722943,-0.7868142,0.043218717,0.020616703,0.02076942
645,6.449999999999907,-0.28056514,-0.58479017,-0.7979734,0.11285736,0.04917465,0.013744468
646,6.459999999999907,-0.275199,-0.5497272,-0.819316,0.117744274,0.04184427,0.02107485
647,6.4699999999999065,-0.26995477,-0.5044197,-0.8349268,0.09468412,0.022143865,0.02107485
648,6.479999999999906,-0.27708933,-0.44600162,-0.8386465,0.06169739,0.017104227,0.013591751
649,6.489999999999906,-0.27708933,-0.44600162,-0.8386465,0.06169739,0.017104227,0.013591751
650,6.499999999999906,-0.2987979,-0.40081608,-0.83986604,0.06169739,0.017104227,0.013591751
651,6.509999999999906,-0.27233297,-0.40313327,-0.85175705,0.033292156,0.063224554,-0.016187929
652,6.519999999999905,-0.24153848,-0.41319484,-0.8596233,0.007788532,0.037415497,-0.020005837
653,6.529999999999905,-0.23165986,-0.45691693,-0.8434029,-0.0786489,-0.009468411,-0.037415497
654,6.539999999999905,-0.2423312,-0.4818574,-0.8334633,-0.1421789,-0.027030786,-0.048716504
655,6.549999999999905,-0.28294334,-0.503444,-0.8068154,-0.24388795,-0.004428773,-0.069027774
656,6.559999999999905,-0.33587328,-0.49246776,-0.7806553,-0.2835942,0.06001751,-0.06352998
657,6.569999999999904,-0.35514265,-0.46234405,-0.77248406,-0.2835942,0.06001751,-0.06352998
658,6.579999999999904,-0.33593425,-0.33861732,-0.8205357,-0.1421789,0.12186762,-0.02855795
659,6.589999999999904,-0.33593425,-0.33861732,-0.8205357,-0.022296581,0.13240504,-0.020463986
660,6.599999999999904,-0.2826994,-0.33069003,-0.8844418,0.0015271631,0.22418754,-0.030543262
661,6.6099999999999035,-0.2826994,-0.33069003,-0.8844418,0.0015271631,0.22418754,-0.030543262
662,6.619999999999903,-0.25013652,-0.47228366,-0.88919824,-0.001985312,0.20097467,-0.023060163
663,6.629999999999903,-0.22989148,-0.54667825,-0.8739534,0.01817324,0.1253801,-0.023823744
664,6.639999999999903,-0.21751268,-0.57680196,-0.8720021,0.040775254,0.05955936,-0.038179077
665,6.649999999999903,-0.22574489,-0.5652159,-0.8834662,0.061086524,-0.0013744468,-0.057421334
666,6.659999999999902,-0.22446433,-0.5378972,-0.8832832,0.06963864,-0.010995574,-0.06337727
667,6.669999999999902,-0.22446433,-0.5378972,-0.8832832,0.06963864,-0.010995574,-0.06337727
668,6.679999999999902,-0.20452413,-0.47679612,-0.86480653,0.026572637,0.036193766,-0.06994407
669,6.689999999999902,-0.20013362,-0.43965977,-0.83840257,-0.021533,0.0627664,-0.061850104
670,6.699999999999902,-0.19184047,-0.4425258,-0.84023196,-0.021533,0.0627664,-0.061850104
671,6.709999999999901,-0.19184047,-0.4425258,-0.84023196,-0.021380283,0.046883907,-0.06169739
672,6.719999999999901,-0.17927876,-0.45277032,-0.86730665,-0.030695979,-0.012980887,-0.0786489
673,6.729999999999901,-0.19702369,-0.45057508,-0.8982231,-0.123547494,-0.17715092,-0.09819659
674,6.739999999999901,-0.2420873,-0.42337835,-0.8477934,-0.19410244,-0.24831672,-0.10445796
675,6.7499999999999005,-0.27617463,-0.39764515,-0.81730384,-0.2041817,-0.20693061,-0.09117164
676,6.7599999999999,-0.29160237,-0.37672928,-0.79626596,-0.1731803,-0.10293079,-0.0804815
677,6.7699999999999,-0.26452765,-0.39612067,-0.81035215,-0.11301007,0.007330383,-0.06337727
678,6.7799999999999,-0.20891462,-0.46228305,-0.875295,-0.13362677,-0.023365596,-0.053603426
679,6.7899999999999,-0.20891462,-0.46228305,-0.875295,-0.13362677,-0.023365596,-0.053603426
680,6.7999999999998995,-0.23672113,-0.47460085,-0.86614805,-0.18570304,-0.09437868,-0.064599
681,6.809999999999899,-0.23672113,-0.47460085,-0.86614805,-0.20143281,-0.12385293,-0.058490347
682,6.819999999999899,-0.2736135,-0.4688688,-0.8359024,-0.18417588,-0.13347405,-0.05222898
683,6.829999999999899,-0.27422333,-0.44594067,-0.84102464,-0.071318515,-0.16447547,-0.052687127
684,6.839999999999899,-0.25544173,-0.4552095,-0.86797744,-0.04795292,-0.16798794,-0.04886922
685,6.849999999999898,-0.25544173,-0.4552095,-0.86797744,-0.04795292,-0.16798794,-0.04886922
686,6.859999999999898,-0.25544173,-0.4552095,-0.86797744,-0.071318515,-0.1656972,-0.05024367
687,6.869999999999898,-0.24720955,-0.5272259,-0.85633045,-0.11530081,-0.16600263,-0.065209866
688,6.879999999999898,-0.29379764,-0.5425316,-0.8219992,-0.17654006,-0.15057829,-0.08032878
689,6.8899999999998975,-0.31605503,-0.526982,-0.79516834,-0.18280143,-0.15057829,-0.05955936
690,6.899999999999897,-0.31605503,-0.526982,-0.79516834,-0.18280143,-0.15057829,-0.05955936
691,6.909999999999897,-0.3123353,-0.456673,-0.76967907,-0.112704635,-0.07192938,0.004276057
692,6.919999999999897,-0.29318783,-0.43374482,-0.79803437,-0.07269296,-0.02275473,0.009162978
693,6.929999999999897,-0.27910164,-0.42947626,-0.8446834,-0.05085453,0.007788532,0.004276057
694,6.9399999999998965,-0.27629662,-0.4446601,-0.8717582,-0.054367006,0.00045814895,-0.007941248
695,6.949999999999896,-0.27605268,-0.45929506,-0.8896251,-0.079870634,-0.03268129,-0.025045475
696,6.959999999999896,-0.27654052,-0.46514907,-0.88127095,-0.105374254,-0.052381694,-0.037415497
697,6.969999999999896,-0.27654052,-0.46514907,-0.88127095,-0.105374254,-0.052381694,-0.037415497
698,6.979999999999896,-0.25208786,-0.46002686,-0.846025,-0.105374254,-0.052381694,-0.037415497
699,6.989999999999895,-0.27080846,-0.47039333,-0.86797744,-0.12614368,-0.042760566,-0.05467244
700,6.999999999999895,-0.26355198,-0.44051352,-0.83273154,-0.12110403,-0.04153884,-0.064446285
701,7.009999999999895,-0.28026026,-0.4279518,-0.8237676,-0.10644327,-0.037873644,-0.06688975
702,7.019999999999895,-0.292761,-0.41447538,-0.85236686,-0.031001411,-0.01160644,-0.02855795
703,7.0299999999998946,-0.2660521,-0.4353303,-0.87907565,-0.016340645,-0.012675454,-0.013744468
704,7.039999999999894,-0.24824621,-0.46203914,-0.89078367,-0.02733622,-0.009162978,-0.011453724
705,7.049999999999894,-0.23202574,-0.48923588,-0.883954,-0.036193766,0.017715093,-0.014049901
706,7.059999999999894,-0.24135554,-0.49460202,-0.87468517,-0.031612277,0.059253927,-0.010537425
707,7.069999999999894,-0.25214887,-0.48155248,-0.8764536,-0.0062613687,0.100792766,0.0041233404
708,7.0799999999998935,-0.25812483,-0.45624614,-0.88218564,0.027947085,0.09621128,0.019089539
709,7.089999999999893,-0.2680644,-0.41929275,-0.8827344,0.052687127,0.068264194,0.025503624
710,7.099999999999893,-0.26964986,-0.39294976,-0.8859663,0.108123146,0.011301007,0.037110064
711,7.109999999999893,-0.25538075,-0.3817296,-0.90401614,0.14019357,-0.016493361,0.044745877
712,7.119999999999893,-0.23519666,-0.3919131,-0.92023665,0.11835514,-0.04230242,0.039858956
713,7.129999999999892,-0.23080614,-0.39770615,-0.91773653,0.11835514,-0.04230242,0.039858956
714,7.139999999999892,-0.23287943,-0.43270817,-0.88218564,0.0035124752,-0.076052725,0.028252518
715,7.149999999999892,-0.24678269,-0.46624672,-0.83663416,-0.04795292,-0.077579886,0.024281893
716,7.159999999999892,-0.26056397,-0.4896627,-0.8101692,-0.060170226,-0.08002335,0.024129177
717,7.169999999999892,-0.27861384,-0.51503,-0.79102176,-0.043066,-0.077579886,0.04016439
718,7.179999999999891,-0.2762356,-0.5184449,-0.7880338,-0.02611449,-0.07009678,0.05009095
719,7.189999999999891,-0.28446782,-0.51557887,-0.79400975,0.00061086525,-0.055283304,0.078343466
720,7.199999999999891,-0.27818695,-0.4985047,-0.79461956,0.039553523,-0.02565634,0.09056077
721,7.209999999999891,-0.28611428,-0.45130682,-0.8123645,0.039553523,-0.02565634,0.09056077
722,7.2199999999998905,-0.28940713,-0.4299641,-0.8370001,0.098043874,0.0027488936,0.09086621
723,7.22999999999989,-0.28940713,-0.4299641,-0.8370001,0.098043874,0.0027488936,0.09086621
724,7.23999999999989,-0.27879676,-0.40813357,-0.89029586,0.08109236,-0.0010690142,0.07238753
725,7.24999999999989,-0.27879676,-0.40813357,-0.89029586,0.08109236,-0.0010690142,0.07238753
726,7.25999999999989,-0.2505634,-0.441977,-0.8613307,0.00061086525,-0.043066,0.065973446
727,7.269999999999889,-0.2505634,-0.441977,-0.8613307,0.00061086525,-0.043066,0.065973446
728,7.279999999999889,-0.25361237,-0.45996585,-0.8382196,-0.022907447,-0.009010263,0.06811147
729,7.289999999999889,-0.27965048,-0.46978348,-0.8125474,-0.016798794,-0.0053450707,0.070554934
730,7.299999999999889,-0.27965048,-0.46978348,-0.8125474,-0.016798794,-0.0053450707,0.070554934
731,7.309999999999889,-0.31495738,-0.42148802,-0.8714533,0.14966199,-0.007788532,0.093767814
732,7.319999999999888,-0.30599347,-0.4059383,-0.8979183,0.17180584,-0.028405234,0.100029185
733,7.329999999999888,-0.27611366,-0.3945962,-0.9211513,0.17088956,-0.06505715,0.08674286
734,7.339999999999888,-0.269284,-0.3945352,-0.9195659,0.14523321,-0.0580322,0.06566802
735,7.349999999999888,-0.27672347,-0.40526757,-0.904443,0.10598512,-0.020463986,0.03604105
736,7.3599999999998875,-0.2962978,-0.4238052,-0.88102704,0.08750644,0.013591751,0.014966198
737,7.369999999999887,-0.30520073,-0.43404973,-0.86681885,0.093462385,0.020922136,0.013744468
738,7.379999999999887,-0.3091034,-0.45307523,-0.8510253,0.18066339,-0.011453724,0.027794369
739,7.389999999999887,-0.30953026,-0.46911272,-0.848891,0.18066339,-0.011453724,0.027794369
740,7.399999999999887,-0.30721304,-0.48868704,-0.8735266,0.21410827,-0.05513059,0.03191771
741,7.4099999999998865,-0.30721304,-0.48868704,-0.8735266,0.21410827,-0.05513059,0.03191771
742,7.419999999999886,-0.31886008,-0.4774059,-0.83767086,0.17470746,-0.024892759,0.00580322
743,7.429999999999886,-0.33026317,-0.46624672,-0.8233407,0.17470746,-0.024892759,0.00580322
744,7.439999999999886,-0.33026317,-0.46624672,-0.8233407,0.18203785,0.00076358154,-0.008857546
745,7.449999999999886,-0.3392271,-0.4487457,-0.81827945,0.21242839,0.03268129,-0.010079277
746,7.459999999999885,-0.3392271,-0.4487457,-0.81827945,0.21242839,0.03268129,-0.010079277
747,7.469999999999885,-0.32361645,-0.42770788,-0.82760924,0.21242839,0.03268129,-0.010079277
748,7.479999999999885,-0.26830834,-0.44447714,-0.84395164,0.25335637,0.098807454,0.021685716
749,7.489999999999885,-0.2373919,-0.4973461,-0.82980454,0.17104226,0.14110987,0.01740966
750,7.4999999999998845,-0.23641624,-0.51582277,-0.8188282,0.116980694,0.1516473,0.012064588
751,7.509999999999884,-0.23897736,-0.5202133,-0.80809593,0.07544186,0.14660765,0.0070249503
752,7.519999999999884,-0.2532465,-0.50856626,-0.80157113,0.04260785,0.10842858,0.0032070426
753,7.529999999999884,-0.26355198,-0.49015057,-0.8038274,0.02443461,0.0888809,0.004428773
754,7.539999999999884,-0.27794304,-0.44490403,-0.8040713,0.0013744468,0.06429356,-0.00290161
755,7.5499999999998835,-0.27708933,-0.42051232,-0.8043762,-0.010842858,0.056963183,-0.00061086525
756,7.559999999999883,-0.26001516,-0.42484185,-0.80559576,-0.01695151,0.049480084,0.01282817
757,7.569999999999883,-0.2306232,-0.4489896,-0.8084008,-0.03894266,0.03481932,0.022602014
758,7.579999999999883,-0.22031774,-0.4689298,-0.8036444,-0.065973446,0.035888333,0.02367103
759,7.589999999999883,-0.22464725,-0.5030171,-0.7843141,-0.11728613,0.032986723,0.018478673
760,7.599999999999882,-0.24281906,-0.5099078,-0.7712035,-0.12308934,-0.004886922,0.013744468
761,7.609999999999882,-0.2687352,-0.49252874,-0.7707157,-0.110413894,-0.057268616,0.013897184
762,7.619999999999882,-0.28483367,-0.45417285,-0.79132664,-0.0954477,-0.09987647,0.014202617
763,7.629999999999882,-0.2935537,-0.42941532,-0.81413287,-0.093004234,-0.102319926,0.010537425
764,7.6399999999998816,-0.2987979,-0.40874338,-0.8860883,-0.105374254,-0.06337727,-0.01160644
765,7.649999999999881,-0.2987979,-0.40874338,-0.8860883,-0.105374254,-0.06337727,-0.01160644
766,7.659999999999881,-0.28922418,-0.42630538,-0.90529674,-0.11866058,-0.07803804,-0.014202617
767,7.669999999999881,-0.25361237,-0.48106465,-0.87791705,-0.17104226,-0.12965615,0.0016798794
768,7.679999999999881,-0.25361237,-0.48106465,-0.87791705,-0.17104226,-0.12965615,0.0016798794
769,7.6899999999998805,-0.25135612,-0.5012488,-0.79675376,-0.17256944,-0.07238753,-0.025503624
770,7.69999999999988,-0.26861322,-0.4818574,-0.79132664,-0.15210545,-0.016035212,-0.028099801
771,7.70999999999988,-0.29288295,-0.45087993,-0.8192551,-0.12935072,0.04138612,-0.02687807
772,7.71999999999988,-0.30337137,-0.43545225,-0.85120827,-0.111177474,0.052534413,-0.019547688
773,7.72999999999988,-0.2828214,-0.4253297,-0.91548026,-0.09972375,0.0025961774,-0.0070249503
774,7.739999999999879,-0.27074748,-0.4355742,-0.94542104,-0.13103059,-0.06841691,-0.02275473
775,7.749999999999879,-0.2739794,-0.45563635,-0.95590943,-0.22388211,-0.06536258,-0.052839845
776,7.759999999999879,-0.26964986,-0.4686859,-0.94157934,-0.22388211,-0.06536258,-0.052839845
777,7.769999999999879,-0.2759917,-0.4557583,-0.8487081,-0.23991732,-0.05085453,-0.06154467
778,7.779999999999879,-0.2684303,-0.45709983,-0.8237676,-0.17119499,-0.082161374,-0.04505131
779,7.789999999999878,-0.26794246,-0.46002686,-0.8232798,-0.17119499,-0.082161374,-0.04505131
780,7.799999999999878,-0.26794246,-0.46002686,-0.8232798,-0.124769226,-0.07941248,-0.028863383
781,7.809999999999878,-0.2652594,-0.47466183,-0.83571947,-0.101556346,-0.069485925,-0.025045475
782,7.819999999999878,-0.27245492,-0.47569847,-0.8465128,-0.101556346,-0.064599,-0.032375857
783,7.8299999999998775,-0.29404154,-0.46899077,-0.83754885,-0.081855945,-0.08399397,-0.0346666
784,7.839999999999877,-0.28672403,-0.47575948,-0.8349268,-0.081855945,-0.08399397,-0.0346666
785,7.849999999999877,-0.2775772,-0.47807667,-0.8212065,-0.073303826,-0.0936151,-0.0125227375
786,7.859999999999877,-0.27916262,-0.47758886,-0.8104741,-0.073303826,-0.0936151,-0.0125227375
787,7.869999999999877,-0.29550505,-0.468381,-0.7883387,-0.08109236,-0.048563786,0.01160644
788,7.879999999999876,-0.3125792,-0.4548436,-0.79309505,-0.06047566,-0.025198191,0.019089539
789,7.889999999999876,-0.3231286,-0.42191488,-0.8340121,-0.029932396,-0.016493361,0.019242255
790,7.899999999999876,-0.33495858,-0.3664848,-0.85431814,0.019089539,-0.014966198,0.015882496
791,7.909999999999876,-0.32953143,-0.34892282,-0.8695629,0.055741455,-0.008552114,0.017256944
792,7.919999999999876,-0.29410252,-0.357094,-0.8973694,0.08246681,0.019700404,0.019700404
793,7.929999999999875,-0.29410252,-0.357094,-0.8973694,0.08246681,0.019700404,0.019700404
794,7.939999999999875,-0.29410252,-0.357094,-0.8973694,0.030695979,0.07666359,0.0033597588
795,7.949999999999875,-0.29410252,-0.357094,-0.8973694,0.030695979,0.07666359,0.0033597588
796,7.959999999999875,-0.26074693,-0.5058222,-0.8328535,0.018478673,0.070554934,0.0032070426
797,7.9699999999998745,-0.26904008,-0.50679785,-0.82949966,0.037110064,0.019394971,0.019547688
798,7.979999999999874,-0.27928457,-0.48789433,-0.83962214,0.049632803,-0.008552114,0.023365596
799,7.989999999999874,-0.29532212,-0.4413672,-0.8729778,0.07223482,-0.07437284,0.016340645
800,7.999999999999874,-0.30020046,-0.40978,-0.89340574,0.074830994,-0.09025534,0.004276057
801,8.009999999999874,-0.28233355,-0.36191136,-0.90596753,0.071318515,-0.084146686,-0.025198191
802,8.019999999999873,-0.27355254,-0.38422972,-0.8890763,0.04917465,-0.06490443,-0.05222898
803,8.029999999999873,-0.26538134,-0.4376475,-0.8468787,-0.013591751,-0.022602014,-0.056505036
804,8.039999999999873,-0.27824792,-0.49313855,-0.7956562,-0.02977968,0.007941248,-0.041996986
805,8.049999999999873,-0.27824792,-0.49313855,-0.7956562,-0.02977968,0.007941248,-0.041996986
806,8.059999999999873,-0.33410487,-0.5470441,-0.784375,0.044745877,0.023060163,-0.022143865
807,8.069999999999872,-0.33806852,-0.52966505,-0.8328535,0.10216721,0.04046982,-0.024281893
808,8.079999999999872,-0.33501956,-0.509298,-0.8608429,0.113162786,0.05390886,-0.03894266
809,8.089999999999872,-0.3208724,-0.47075918,-0.8874908,0.09010262,0.05009095,-0.061086524
810,8.099999999999872,-0.30404213,-0.44575772,-0.8749901,0.0571159,0.025503624,-0.06490443
811,8.109999999999872,-0.2804432,-0.45819747,-0.8414515,0.025350908,0.034972034,-0.06627888
812,8.119999999999871,-0.269345,-0.47752786,-0.81870633,0.013897184,0.07651087,-0.069027774
813,8.129999999999871,-0.26245433,-0.51106644,-0.8011443,-0.0,0.15806139,-0.08536842
814,8.139999999999871,-0.27263784,-0.52234757,-0.799132,-0.007330383,0.15683965,-0.10369437
815,8.14999999999987,-0.28922418,-0.5175912,-0.80279076,-0.004581489,0.13240504,-0.118202426
816,8.15999999999987,-0.29605386,-0.49478498,-0.81870633,0.0041233404,0.12507465,-0.12064589
817,8.16999999999987,-0.2980052,-0.4811866,-0.8247433,0.0053450707,0.11911872,-0.11942416
818,8.17999999999987,-0.27471116,-0.44014767,-0.84065884,0.00580322,0.070249505,-0.122783914
819,8.18999999999987,-0.26062497,-0.42837867,-0.8430979,0.00580322,0.070249505,-0.122783914
820,8.19999999999987,-0.2455631,-0.4224027,-0.84053683,-0.0016798794,0.07147124,-0.11682798
821,8.20999999999987,-0.2455631,-0.4224027,-0.84053683,-0.0056505036,0.10308351,-0.10720685
822,8.21999999999987,-0.24452646,-0.4311837,-0.8423662,-0.012064588,0.12751812,-0.09743301
823,8.229999999999869,-0.21373199,-0.4723446,-0.825475,-0.0627664,0.17730364,-0.061391957
824,8.239999999999869,-0.21373199,-0.4723446,-0.825475,-0.0627664,0.17730364,-0.061391957
825,8.249999999999869,-0.25153908,-0.43844023,-0.81608415,-0.11682798,0.1611157,-0.02611449
826,8.259999999999868,-0.26586917,-0.41514617,-0.8111449,-0.12644911,0.12935072,-0.006414085
827,8.269999999999868,-0.27580878,-0.37624148,-0.81608415,-0.11652254,0.1001819,0.01572978
828,8.279999999999868,-0.2639788,-0.37032646,-0.83114606,-0.110413894,0.09162979,0.030543262
829,8.289999999999868,-0.2534904,-0.39032766,-0.8468787,-0.12064589,0.111177474,0.056046885
830,8.299999999999867,-0.25330746,-0.4288055,-0.83907336,-0.11988231,0.15760323,0.07666359
831,8.309999999999867,-0.25422215,-0.48380873,-0.81651103,-0.07574729,0.15790866,0.09040806
832,8.319999999999867,-0.25160006,-0.5660086,-0.7823017,0.09789115,0.027183503,0.082161374
833,8.329999999999867,-0.24605095,-0.59381515,-0.7907169,0.31505376,0.012675454,0.06414085
834,8.339999999999867,-0.24830718,-0.5553983,-0.8248042,0.33735034,0.1421789,0.056352317
835,8.349999999999866,-0.23916028,-0.4376475,-0.887064,0.24984388,0.36865717,0.058490347
836,8.359999999999866,-0.22104947,-0.3606918,-0.94243306,0.13133603,0.47525316,0.065973446
837,8.369999999999866,-0.16470474,-0.26038104,-1.0790873,-0.10842858,0.4286747,0.075594574
838,8.379999999999866,-0.11903133,-0.26702777,-1.1111623,-0.38545597,0.1704314,0.016187929
839,8.389999999999866,-0.14720371,-0.324958,-1.0337188,-0.538325,-0.11255192,-0.065515295
840,8.399999999999865,-0.21110988,-0.40788963,-0.9080408,-0.5664248,-0.4008803,-0.12568553
841,8.409999999999865,-0.21110988,-0.40788963,-0.9080408,-0.5664248,-0.4008803,-0.12568553
842,8.419999999999865,-0.21110988,-0.40788963,-0.9080408,-0.44806966,-0.5111415,-0.1049161
843,8.429999999999865,-0.26794246,-0.48057684,-0.85907453,-0.3894266,-0.21044308,-0.059406646
844,8.439999999999864,-0.2983101,-0.41636577,-0.83041435,-0.37415496,-0.11759156,-0.068264194
845,8.449999999999864,-0.2983101,-0.41636577,-0.83041435,-0.37415496,-0.11759156,-0.068264194
846,8.459999999999864,-0.30026144,-0.36953375,-0.8110839,-0.39950588,-0.16661349,-0.058337633
847,8.469999999999864,-0.28696796,-0.37179,-0.7748623,-0.41034874,-0.18616119,-0.058337633
848,8.479999999999864,-0.28696796,-0.37179,-0.7748623,-0.36774087,-0.1518,-0.056963183
849,8.489999999999863,-0.30044436,-0.38355896,-0.78358227,-0.310625,-0.095294975,-0.0580322
850,8.499999999999863,-0.31855518,-0.40490165,-0.860538,-0.27412578,-0.062002823,-0.055588737
851,8.509999999999863,-0.32306764,-0.43295208,-0.92889565,-0.2657264,-0.05955936,-0.04810564
852,8.519999999999863,-0.31855518,-0.44655046,-0.9360302,-0.2680171,-0.07422013,-0.05421429
853,8.529999999999863,-0.30904242,-0.48728454,-0.89060074,-0.25427267,-0.07544186,-0.07742717
854,8.539999999999862,-0.29257807,-0.5103346,-0.81559634,-0.17104226,-0.052839845,-0.09407325
855,8.549999999999862,-0.28196767,-0.5107005,-0.8003516,-0.11866058,-0.034208454,-0.0888809
856,8.559999999999862,-0.27568683,-0.49948034,-0.80333954,-0.061391957,0.005192355,-0.08506299
857,8.569999999999862,-0.29574898,-0.45740473,-0.86889213,-0.04810564,0.024740042,-0.08506299
858,8.579999999999862,-0.29574898,-0.45740473,-0.86889213,-0.0627664,0.13469578,-0.014660766
859,8.589999999999861,-0.29843205,-0.40203565,-0.9261516,-0.0627664,0.13469578,-0.014660766
860,8.599999999999861,-0.28410196,-0.3284338,-0.9444453,-0.065515295,0.15790866,0.005955936
861,8.60999999999986,-0.23702602,-0.24684367,-0.9693248,-0.041996986,0.12018774,0.007483099
862,8.61999999999986,-0.18586451,-0.26062497,-0.9623123,-0.05390886,-0.030085113,-0.06414085
863,8.62999999999986,-0.2239155,-0.31483543,-0.9269444,-0.08659015,-0.064599,-0.070249505
864,8.63999999999986,-0.2239155,-0.31483543,-0.9269444,-0.08659015,-0.064599,-0.070249505
865,8.64999999999986,-0.2675156,-0.39337662,-0.85383034,0.009315695,-0.016187929,0.0010690142
866,8.65999999999986,-0.2584297,-0.4235613,-0.8709045,0.059406646,-0.004886922,0.018478673
867,8.66999999999986,-0.2584297,-0.4235613,-0.8709045,0.123242065,-0.039858956,0.033750303
868,8.67999999999986,-0.2672717,-0.36361876,-0.994997,0.11010846,-0.08506299,0.031306844
869,8.68999999999986,-0.2912365,-0.25166103,-0.9879235,0.070249505,-0.1330159,0.00076358154
870,8.699999999999859,-0.32879966,-0.18690115,-0.9446892,0.07284568,-0.14156802,-0.016340645
871,8.709999999999859,-0.32879966,-0.18690115,-0.9446892,0.1255328,-0.14126259,-0.00015271631
872,8.719999999999859,-0.29343176,-0.2619665,-0.8776122,0.17562376,-0.1226312,-0.0047342055
873,8.729999999999858,-0.29757833,-0.32825086,-0.8583427,0.1788308,-0.07009678,-0.014813482
874,8.739999999999858,-0.30337137,-0.47691807,-0.837183,0.18325958,0.00076358154,-0.006414085
875,8.749999999999858,-0.30337137,-0.47691807,-0.837183,0.19013181,0.055741455,-0.009010263
876,8.759999999999858,-0.32270175,-0.5081394,-0.8266336,0.19608775,0.0777326,0.0018325958
877,8.769999999999857,-0.31392074,-0.5236281,-0.8151695,0.2144137,0.079107046,0.012980887
878,8.779999999999857,-0.31392074,-0.5236281,-0.8151695,0.22418754,0.087659165,0.0056505036
879,8.789999999999857,-0.30050534,-0.47594243,-0.87017274,0.23869559,0.12064589,-0.02855795
880,8.799999999999857,-0.29550505,-0.43319598,-0.9115776,0.23273966,0.13164146,-0.048258353
881,8.809999999999857,-0.2004995,-0.41996354,-0.9156632,0.22907446,0.1253801,-0.06414085
882,8.819999999999856,-0.2004995,-0.41996354,-0.9156632,0.16966783,0.11759156,-0.1366811
883,8.829999999999856,-0.16263144,-0.45301422,-0.82669455,0.16966783,0.11759156,-0.1366811
884,8.839999999999856,-0.14506944,-0.50399286,-0.79760754,0.17806722,0.117744274,-0.11453723
885,8.849999999999856,-0.13360536,-0.5366167,-0.8063275,0.17577648,0.07498371,-0.08506299
886,8.859999999999856,-0.1478135,-0.55484945,-0.8330974,0.13316862,0.01740966,-0.053297993
887,8.869999999999855,-0.1604362,-0.5515566,-0.8449273,0.13316862,0.01740966,-0.053297993
888,8.879999999999855,-0.20238985,-0.46618572,-0.89029586,0.011453724,-0.121256754,-0.0009162979
889,8.889999999999855,-0.20238985,-0.46618572,-0.89029586,0.011453724,-0.121256754,-0.0009162979
890,8.899999999999855,-0.20238985,-0.46618572,-0.89029586,0.011453724,-0.121256754,-0.0009162979
891,8.909999999999854,-0.20269476,-0.30574957,-0.8571841,-0.03145956,-0.27763826,-0.00045814895
892,8.919999999999854,-0.20269476,-0.30574957,-0.8571841,-0.110872045,-0.3135266,0.006414085
893,8.929999999999854,-0.2245253,-0.43222034,-0.7408359,-0.12980886,-0.27091873,0.028252518
894,8.939999999999854,-0.24477036,-0.5136275,-0.7132124,-0.13041973,-0.20738874,0.06582073
895,8.949999999999854,-0.2497097,-0.5789362,-0.71784675,-0.12018774,-0.13897185,0.10720685
896,8.959999999999853,-0.23537959,-0.5987544,-0.82949966,-0.10125092,-0.08384126,0.15974127
897,8.969999999999853,-0.23537959,-0.5987544,-0.82949966,-0.09514226,-0.10323623,0.17821993
898,8.979999999999853,-0.2432459,-0.5571057,-0.8959059,-0.12889257,-0.17180584,0.17821993
899,8.989999999999853,-0.28208962,-0.48179638,-0.90352833,-0.17088956,-0.26740626,0.14905111
900,8.999999999999853,-0.36404565,-0.32129923,-0.8483422,-0.16676621,-0.31978795,0.12965615
901,9.009999999999852,-0.36404565,-0.32129923,-0.8483422,0.0062613687,-0.3529274,0.14309518
902,9.019999999999852,-0.35465485,-0.26568624,-0.84407365,0.06918049,-0.2864958,0.17623462
903,9.029999999999852,-0.32477504,-0.30068827,-0.8847468,0.06918049,-0.2864958,0.17623462
904,9.039999999999852,-0.32477504,-0.30068827,-0.8847468,0.07803804,-0.17165314,0.19425514
905,9.049999999999851,-0.32672638,-0.3383734,-0.91548026,0.043218717,-0.10720685,0.20234911
906,9.059999999999851,-0.336605,-0.39935255,-0.91584617,-0.017562376,-0.04046982,0.22861631
907,9.069999999999851,-0.3398369,-0.4242321,-0.91456556,-0.03283401,0.024129177,0.23426682
908,9.07999999999985,-0.3398369,-0.4242321,-0.91456556,-0.013286319,0.051159963,0.22327125
909,9.08999999999985,-0.3398369,-0.4242321,-0.91456556,0.031001411,0.058643065,0.1881465
910,9.09999999999985,-0.3500814,-0.40435287,-0.92956644,0.07788532,0.051618114,0.14309518
911,9.10999999999985,-0.35349622,-0.39849886,-0.93157876,0.09636399,0.052839845,0.122478485
912,9.11999999999985,-0.36575305,-0.38203448,-0.9363351,0.1591304,0.0580322,0.06658431
913,9.12999999999985,-0.36782634,-0.37032646,-0.9271883,0.18845193,0.066737026,0.04596761
914,9.13999999999985,-0.36258212,-0.36392367,-0.91798043,0.22159137,0.0852157,0.030085113
915,9.14999999999985,-0.34178823,-0.3720339,-0.8981622,0.25335637,0.09636399,0.019242255
916,9.15999999999985,-0.31495738,-0.395206,-0.8863932,0.27046058,0.09773844,0.01695151
917,9.169999999999849,-0.31495738,-0.395206,-0.8863932,0.27183503,0.09285152,0.010842858
918,9.179999999999849,-0.3077009,-0.41459736,-0.8710264,0.24846944,0.100029185,0.0033597588
919,9.189999999999849,-0.29934675,-0.4355132,-0.8623674,0.23014349,0.09743301,-0.0016798794
920,9.199999999999848,-0.2909316,-0.4578316,-0.8624893,0.2443461,0.01695151,-0.015882496
921,9.209999999999848,-0.30074924,-0.45124584,-0.9089555,0.2864958,-0.18295415,-0.049021937
922,9.219999999999848,-0.3059325,-0.43478146,-0.93846935,0.2564107,-0.22342396,-0.06872234
923,9.229999999999848,-0.31099376,-0.41435343,-0.9314568,0.17531833,-0.18005253,-0.09132435
924,9.239999999999847,-0.3111767,-0.41087765,-0.9124923,0.13347405,-0.14737125,-0.107665
925,9.249999999999847,-0.3111767,-0.41087765,-0.9124923,0.1423316,-0.16325374,-0.12217305
926,9.259999999999847,-0.31014004,-0.42630538,-0.8650505,0.18585575,-0.23869559,-0.1339322
927,9.269999999999847,-0.31453055,-0.43752554,-0.85517186,0.19685133,-0.2507602,-0.12767084
928,9.279999999999847,-0.31014004,-0.45252642,-0.84474444,0.15821409,-0.18020524,-0.11102476
929,9.289999999999846,-0.2976393,-0.4616733,-0.8259628,0.08628472,-0.0720821,-0.09605856
930,9.299999999999846,-0.2827604,-0.46832004,-0.7935829,0.016798794,0.03863723,-0.088422745
931,9.309999999999846,-0.26702777,-0.45886827,-0.76675206,-0.021685716,0.11285736,-0.093767814
932,9.319999999999846,-0.2572711,-0.44661143,-0.77559406,-0.010231993,0.06154467,-0.111941054
933,9.329999999999846,-0.254588,-0.42136607,-0.81242543,-0.01572978,0.0016798794,-0.13744467
934,9.339999999999845,-0.2637349,-0.40642616,-0.8365732,-0.06780604,-0.04260785,-0.16447547
935,9.349999999999845,-0.2637349,-0.40642616,-0.8365732,-0.06780604,-0.04260785,-0.16447547
936,9.359999999999845,-0.27532095,-0.40606028,-0.84590304,-0.06780604,-0.04260785,-0.16447547
937,9.369999999999845,-0.28166276,-0.43283013,-0.8310241,-0.06780604,-0.04260785,-0.16447547
938,9.379999999999844,-0.28166276,-0.43283013,-0.8310241,-0.06780604,-0.04260785,-0.16447547
939,9.389999999999844,-0.3234335,-0.46618572,-0.6755882,-0.31138855,-0.10140363,-0.13881913
940,9.399999999999844,-0.37075335,-0.46649066,-0.6721733,-0.03634648,-0.09712757,-0.03924809
941,9.409999999999844,-0.37581462,-0.45838037,-0.7093707,0.057421334,-0.04520403,-0.0009162979
942,9.419999999999844,-0.37093627,-0.43514732,-0.7700449,0.057421334,-0.04520403,-0.0009162979
943,9.429999999999843,-0.3514839,-0.42057332,-0.8250481,0.098807454,-0.06078109,0.0421497
944,9.439999999999843,-0.3514839,-0.42057332,-0.8250481,0.098807454,-0.06078109,0.0421497
945,9.449999999999843,-0.32056746,-0.4228905,-0.8471226,0.07192938,-0.06704246,0.043218717
946,9.459999999999843,-0.27099144,-0.45185563,-0.8623674,-0.0041233404,-0.032070424,0.019394971
947,9.469999999999843,-0.25044146,-0.48826018,-0.8490739,-0.109650314,0.023365596,-0.0096211275
948,9.479999999999842,-0.27154022,-0.5048465,-0.82370657,-0.17088956,0.042455133,-0.038179077
949,9.489999999999842,-0.30196884,-0.50399286,-0.80212,-0.17088956,0.042455133,-0.038179077
950,9.499999999999842,-0.3284338,-0.48228425,-0.8036444,-0.1498147,0.01450805,-0.042913284
951,9.509999999999842,-0.33379996,-0.45697787,-0.8190721,-0.11056661,-0.026725354,-0.019242255
952,9.519999999999841,-0.2778211,-0.40087706,-0.89035684,-0.10186178,-0.086437434,0.039858956
953,9.529999999999841,-0.2778211,-0.40087706,-0.89035684,-0.10186178,-0.086437434,0.039858956
954,9.539999999999841,-0.24239218,-0.41923177,-0.9185292,-0.18875736,-0.060170226,-0.0012217305
955,9.54999999999984,-0.22854991,-0.44307464,-0.9239564,-0.18875736,-0.060170226,-0.0012217305
956,9.55999999999984,-0.2503805,-0.4616733,-0.9205415,-0.24587326,-0.09239337,-0.028405234
957,9.56999999999984,-0.29251707,-0.46819806,-0.8950522,-0.24587326,-0.09239337,-0.028405234
958,9.57999999999984,-0.31940886,-0.43947688,-0.85376936,-0.24205536,-0.11911872,-0.022143865
959,9.58999999999984,-0.33501956,-0.400999,-0.82614577,-0.24205536,-0.11911872,-0.022143865
960,9.59999999999984,-0.35691106,-0.35526463,-0.8088887,-0.21029036,-0.12629639,-0.01450805
961,9.60999999999984,-0.3217261,-0.32007965,-0.84065884,0.005955936,-0.10888673,0.07849618
962,9.61999999999984,-0.3217261,-0.32007965,-0.84065884,0.005955936,-0.10888673,0.07849618
963,9.62999999999984,-0.2909316,-0.3506912,-0.8755389,-0.089186326,-0.027641652,0.09712757
964,9.639999999999839,-0.2909316,-0.3506912,-0.8755389,-0.1469131,0.004886922,0.0954477
965,9.649999999999839,-0.30117613,-0.4914921,-0.84078074,-0.1469131,0.004886922,0.0954477
966,9.659999999999838,-0.30117613,-0.4914921,-0.84078074,-0.16920967,0.030390546,0.0926988
967,9.669999999999838,-0.30739596,-0.50563926,-0.8470006,-0.16264287,-0.00992656,0.064751714
968,9.679999999999838,-0.32861674,-0.45899022,-0.85017157,-0.14721853,-0.064751714,0.034513887
969,9.689999999999838,-0.35258156,-0.4114874,-0.8695629,-0.14080444,-0.096516706,0.013897184
970,9.699999999999838,-0.34434935,-0.38801044,-0.8746242,-0.1469131,-0.080634214,0.013744468
971,9.709999999999837,-0.3117255,-0.38782752,-0.8718801,-0.16676621,-0.06490443,0.019700404
972,9.719999999999837,-0.27562585,-0.42313445,-0.8569402,-0.19394971,-0.04917465,0.028099801
973,9.729999999999837,-0.25678328,-0.47661316,-0.8565744,-0.21945333,-0.079870634,0.02687807
974,9.739999999999837,-0.28849244,-0.49722412,-0.8380977,-0.23487769,-0.12996158,0.018325957
975,9.749999999999837,-0.31337196,-0.5046636,-0.8348658,-0.2322815,-0.15439619,0.016035212
976,9.759999999999836,-0.31337196,-0.5046636,-0.8348658,-0.2322815,-0.15439619,0.016035212
977,9.769999999999836,-0.35642326,-0.46258798,-0.84358585,-0.20952678,-0.22266038,0.004276057
978,9.779999999999836,-0.37355837,-0.37105823,-0.84102464,-0.18845193,-0.24938573,-0.022449298
979,9.789999999999836,-0.40825552,-0.29227313,-0.82773125,-0.14569137,-0.2125811,-0.038179077
980,9.799999999999836,-0.40904826,-0.2561735,-0.8198649,-0.04917465,-0.045814894,0.0033597588
981,9.809999999999835,-0.3286777,-0.29087064,-0.84157354,-0.044745877,0.013897184,0.0067195175
982,9.819999999999835,-0.3146525,-0.3565452,-0.84157354,-0.044745877,0.013897184,0.0067195175
983,9.829999999999835,-0.31879908,-0.39947453,-0.84010994,-0.028405234,0.0983493,0.017562376
984,9.839999999999835,-0.32837284,-0.4311837,-0.84224427,-0.028405234,0.0983493,0.017562376
985,9.849999999999834,-0.32837284,-0.4311837,-0.84224427,0.0033597588,0.10949759,0.031154128
986,9.859999999999834,-0.32837284,-0.4311837,-0.84224427,0.065973446,0.089186326,0.03283401
987,9.869999999999834,-0.33873928,-0.42459795,-0.880966,0.054825157,0.09636399,0.03145956
988,9.879999999999834,-0.3184942,-0.31312802,-0.9751788,0.16157386,-0.031154128,-0.024740042
989,9.889999999999834,-0.31270117,-0.32526287,-0.95743394,0.13072516,0.0027488936,-0.041080687
990,9.899999999999833,-0.3286777,-0.37239978,-0.8951132,0.08353582,0.08674286,-0.046578474
991,9.909999999999833,-0.34508112,-0.42398816,-0.8313289,0.082924955,0.15745051,-0.02855795
992,9.919999999999833,-0.3494716,-0.46435636,-0.80651045,0.12904528,0.19318613,-0.011301007
993,9.929999999999833,-0.34441036,-0.4896627,-0.8061446,0.2049453,0.18768835,0.016187929
994,9.939999999999833,-0.33843437,-0.4896627,-0.8221212,0.24785857,0.1611157,0.031306844
995,9.949999999999832,-0.34331274,-0.4610025,-0.834256,0.26282477,0.13561209,0.035124753
996,9.959999999999832,-0.37075335,-0.39630362,-0.81242543,0.27977628,0.18936823,-0.015118915
997,9.969999999999832,-0.37813184,-0.37538776,-0.8200479,0.31871894,0.25167647,-0.047036625
998,9.979999999999832,-0.37813184,-0.37538776,-0.8200479,0.31871894,0.25167647,-0.047036625
999,9.989999999999831,-0.34666657,-0.3125792,-0.8862712,0.34605515,0.36056322,-0.053450707
1000,9.999999999999831,-0.34666657,-0.3125792,-0.8862712,0.30909783,0.37614027,-0.031612277
