id,timestamp,acc_x,acc_y,acc_z,gyro_x,gyro_y,gyro_z
0,0,3.753146,-0.248795,3.609113,-8.26913,-0.9297369,3.340822
1,0.05,4.1249967,2.414287,6.368542,-2.0874794,0.3359759,1.006095
2,0.1,5.335982,1.9151728,6.1577373,4.2079453,0.021991149,-1.1366675
3,0.15000000000000002,4.035967,0.08396832,3.0484097,5.0016117,2.5399778,-3.5361462
4,0.2,2.9412692,-0.8149866,3.0835946,5.849951,3.1758883,-4.700455
5,0.25,2.7746742,-1.8849881,1.2418407,9.12205,-0.38163805,-7.3713107
6,0.3,2.8428488,-1.8757801,1.0952468,4.3544,0.7287622,-8.598692
7,0.35,2.8053465,-1.5760676,0.71010244,3.6079228,0.5151121,-8.028754
8,0.39999999999999997,1.8890127,-1.4109969,0.46252698,3.1535919,-1.1957687,-7.4899716
9,0.44999999999999996,1.2895265,-1.1932404,0.0892735,5.317429,-3.7861428,-5.4777813
10,0.49999999999999994,-0.16982698,-2.0634742,-0.5388119,2.4819455,-4.3305764,-5.0272684
11,0.5499999999999999,-2.5558197,-5.6914296,0.65436745,-2.7304149,-2.1519256,-8.249887
12,0.6,-3.4968505,-5.3384824,1.2628785,3.6375499,-0.89568114,2.069917
13,0.65,2.5973468,-1.6581455,-1.1846423,-3.648851,7.887492,7.9395685
14,0.7000000000000001,2.1817126,-1.6850983,0.6008887,-5.277112,3.7006216,8.022493
15,0.7500000000000001,2.8106518,-2.1410396,0.51582277,-5.5767417,2.262034,9.610743
16,0.8000000000000002,2.7030845,-2.9285855,1.1706171,-5.8238363,-1.6804903,9.05287
17,0.8500000000000002,3.1904302,-2.6539965,0.76815456,-6.1448464,-0.9460775,8.543714
18,0.9000000000000002,3.8202229,-2.8519957,2.6657043,-8.739344,-2.9582677,7.6168785
19,0.9500000000000003,5.4728193,-1.7077825,3.097071,-6.8540606,-1.0936015,6.009998
20,1.0000000000000002,5.6397195,1.9954214,7.783015,-6.117052,-0.66691214,1.9976821
21,1.0500000000000003,6.8751574,3.0113952,8.085532,3.5361462,-0.2790127,-0.43249258
22,1.1000000000000003,3.161526,-0.7948025,4.8155246,4.7235155,4.860349,-3.2378912
23,1.1500000000000004,3.5425236,-2.1141477,4.2361617,13.576327,-0.5109888,-5.8000126
24,1.2000000000000004,4.0503583,-3.088656,1.5025877,13.553725,-1.1824824,-8.148789
25,1.2500000000000004,3.9832811,-2.5691133,1.378861,4.4785585,-0.57894754,-10.92059
26,1.3000000000000005,2.7474165,-2.0953052,0.61991423,6.433633,-3.9106066,-9.103572
27,1.3500000000000005,1.7175392,-1.6971112,0.028233355,4.2482624,-4.2966733,-6.0903263
28,1.4000000000000006,1.0201205,-2.078414,0.5493003,1.6493362,-4.2192464,-3.7925568
29,1.4500000000000006,-1.9419426,-4.048529,0.68564975,-2.848312,-1.0483974,-3.8143952
30,1.5000000000000007,-3.9980383,-5.5519705,1.5991787,-1.6314683,-1.2841915,-0.27382034
31,1.5500000000000007,-0.84681773,-3.851749,0.38374192,1.5354098,1.8403842,7.882147
32,1.6000000000000008,3.480325,-1.7743717,-0.09793254,-1.8603901,4.065308,10.431746
33,1.6500000000000008,2.8903518,-1.6130209,0.6608312,-3.2133038,3.2982142,8.59243
34,1.7000000000000008,2.5567346,-1.9686514,0.8011443,-4.4765735,3.2010865,8.5654
35,1.7500000000000009,2.491304,-2.3691626,0.9559704,-5.7467146,0.5508477,7.214013
36,1.800000000000001,2.563991,-1.9927382,0.72400564,-7.148803,-0.75900006,5.718004
37,1.850000000000001,3.6686287,-2.1831763,1.668695,-9.144195,-4.0685153,4.1653376
38,1.900000000000001,3.1014614,-1.3530668,3.6780803,-5.9018745,0.07819075,3.8139372
39,1.950000000000001,4.464956,0.94298184,5.0069995,-2.8153253,-1.7463111,3.9645154
40,2.000000000000001,5.739664,2.6588745,6.2920136,-1.8678732,0.4175264,0.024740042
41,2.0500000000000007,3.0893877,-1.1245779,5.6102667,8.32869,2.4521658,-1.3640621
42,2.1000000000000005,3.8048563,-1.4468527,2.5892973,11.572689,0.8874345,-4.990158
43,2.1500000000000004,4.02682,-2.7057676,1.8399854,8.93818,0.29932398,-9.079443
44,2.2,4.3503757,-2.7788205,1.5458828,9.806678,-2.535549,-10.579269
45,2.25,3.4907522,-1.943833,0.68156415,2.8732047,0.8516989,-9.135796
46,2.3,2.4102015,-1.9756641,0.58729035,6.0257273,-3.1230485,-8.874497
47,2.3499999999999996,0.65955067,-3.1238408,-0.1232389,4.273308,-3.2527046,-5.889046
48,2.3999999999999995,0.07311402,-2.4860597,-0.40069413,0.48915035,-1.485777,-2.7296515
49,2.4499999999999993,-2.2050679,-5.1089563,0.4733203,-4.7720795,-2.1342103,-5.0245194
50,2.499999999999999,-2.6944256,-4.7531433,1.2495852,1.2866349,-1.5430456,2.7294986
51,2.549999999999999,0.71992004,-2.4802666,-0.45801452,-0.18784106,3.1239648,9.06127
52,2.5999999999999988,3.10573,-1.3467859,0.064637914,-2.5549438,2.6099217,10.65349
53,2.6499999999999986,2.9899306,-1.6885741,0.39709634,-4.629748,1.0926852,9.653351
54,2.6999999999999984,2.8586423,-2.1982381,0.971703,-5.5197783,0.36911532,9.46719
55,2.7499999999999982,2.719915,-1.9631025,0.8606599,-5.218011,-0.9877691,7.0034175
56,2.799999999999998,2.6219213,-2.2498875,1.1346394,-7.821824,0.2209805,6.807177
57,2.849999999999998,3.794124,-1.4883795,3.0142002,-3.4579554,-3.6861136,4.104251
58,2.8999999999999977,4.522215,0.15446024,4.6162453,-7.9948516,-0.40744713,3.730554
59,2.9499999999999975,5.9446154,2.7378428,7.4143963,-0.91599244,0.14034629,0.767094
60,2.9999999999999973,3.6601524,-0.14482552,5.764239,5.2242723,3.8805215,-2.7365236
61,3.049999999999997,3.77333,-1.045,3.6225286,9.695348,1.5877914,-3.069598
62,3.099999999999997,4.3855,-2.6876569,2.6815588,11.9401245,-0.44501534,-9.260565
63,3.149999999999997,4.386232,-2.7934556,1.0318285,9.021105,-0.4363105,-9.916328
64,3.1999999999999966,3.942608,-2.643569,0.90371126,4.4043384,-1.0435106,-9.5881405
65,3.2499999999999964,2.4939868,-1.8706578,0.63509804,6.537785,-5.237864,-7.5707583
66,3.2999999999999963,0.9195659,-2.6200309,-0.34953257,4.3134723,-4.980232,-4.0049853
67,3.349999999999996,-0.46649066,-3.6276505,-0.21361004,-1.6383406,-2.8104384,-2.934444
68,3.399999999999996,-4.518191,-6.2374372,2.0701816,-5.444184,0.1731803,-1.2360858
69,3.4499999999999957,-1.6901597,-4.2145753,0.40996295,0.5542075,-0.1253801,7.5367026
70,3.4999999999999956,1.9193802,-2.640642,0.0954324,0.2959642,1.8936822,10.2549
71,3.5499999999999954,3.778452,-1.9245635,0.06384519,-0.73975784,3.7557523,9.400147
72,3.599999999999995,3.246348,-2.172261,0.5897905,-3.9839103,3.6845865,9.784992
73,3.649999999999995,2.959624,-2.3262331,0.9913383,-6.1824145,1.7105755,7.508603
74,3.699999999999995,3.0605445,-2.1631749,1.7793112,-4.5098653,-1.7632625,7.8001385
75,3.7499999999999947,2.8519347,-1.5519198,1.911514,-6.4139323,1.0555751,5.6479073
76,3.7999999999999945,3.6918619,-0.7907169,1.4924651,-6.1963115,2.2418754,3.1462615
77,3.8499999999999943,7.0526066,2.6963158,8.422076,-1.0793989,-4.542241,2.787989
78,3.899999999999994,6.7752123,1.1957406,5.809668,1.9711094,4.5039096,-3.005457
79,3.949999999999994,3.4148943,-1.1290293,3.3446462,9.254608,0.77656245,-4.1540365
80,3.999999999999994,3.8559568,-1.6866229,2.048961,9.0208,-1.9381227,-7.9221587
81,4.049999999999994,3.501607,-2.9373665,1.9087089,8.201324,-3.5819612,-10.559417
82,4.099999999999993,4.0913973,-2.4747174,1.4318519,4.221384,-0.22968534,-10.559112
83,4.149999999999993,2.9174874,-2.1070132,0.13884957,5.1498995,-3.5573738,-9.149845
84,4.199999999999993,2.5164273,-2.1411614,0.29605386,3.9118283,-4.9267807,-7.2166095
85,4.249999999999993,-0.5030171,-3.7501578,-0.03945352,-0.5180137,-4.559651,-4.3233986
86,4.299999999999993,-4.314459,-6.305246,1.6642435,-5.8621683,-0.714865,-3.1569517
87,4.3499999999999925,-3.1686604,-5.4905643,0.79632694,-2.561358,0.31306845,3.913661
88,4.399999999999992,3.5450242,-2.5476487,0.5813144,0.47815478,1.3446671,11.256567
89,4.449999999999992,3.886812,-1.1144553,0.20214595,1.6392568,1.651627,7.7515745
90,4.499999999999992,2.1911643,-1.2867215,0.19653587,-3.8168387,3.4799466,7.0648093
91,4.549999999999992,2.6618018,-1.9898722,1.2848921,-4.7471867,0.14874569,7.538841
92,4.599999999999992,2.6124694,-1.6349125,0.8331583,-3.862043,0.805884,7.391164
93,4.6499999999999915,2.8874855,-1.1067718,2.1929328,-5.072167,-0.2837469,5.452736
94,4.699999999999991,2.414287,-1.0696965,1.9070015,-4.734664,1.9463694,4.939151
95,4.749999999999991,4.936507,1.396057,4.3634253,-8.416501,-0.13683382,2.1609359
96,4.799999999999991,4.410684,3.5400848,10.152239,-1.9352211,0.18310685,1.7612772
97,4.849999999999991,4.1634746,1.4170948,3.3086689,4.679533,3.271336,-3.689168
98,4.899999999999991,2.9499893,-0.43404973,3.4610555,8.408407,1.2576188,-5.2380166
99,4.94999999999999,3.0287135,-2.0589006,1.0911003,9.390678,-0.44898596,-7.765777
100,4.99999999999999,2.8378484,-1.7883971,1.4513042,6.745938,-1.7101172,-8.195674
101,5.04999999999999,2.9924917,-1.38752,0.65266,5.866139,-3.360217,-8.49286
102,5.09999999999999,2.7713203,-1.0980519,0.46460027,4.6992335,-5.2174,-5.7607646
103,5.14999999999999,1.3585548,-2.4656317,-0.9186512,3.2565227,-4.196797,-5.273752
104,5.1999999999999895,-0.47179583,-3.102559,0.60832816,-4.2219954,-0.9984592,-3.7986655
105,5.249999999999989,-2.7293665,-4.088836,0.43508637,-3.7777433,-1.4955509,-2.6842947
106,5.299999999999989,-3.6630795,-4.9051642,1.8971838,-3.9359574,0.048716504,1.1754575
107,5.349999999999989,2.3733091,-2.962307,-0.76102,2.778826,3.5851681,11.00489
108,5.399999999999989,3.5191689,-1.0973811,-0.14043503,-0.77579886,4.5452957,8.671232
109,5.449999999999989,2.51161,-2.127746,0.08579769,-3.0767756,0.68111473,10.233673
110,5.4999999999999885,3.169636,-2.6366782,1.3339802,-5.563455,0.49189925,8.617323
111,5.549999999999988,3.082497,-2.7150974,1.6659509,-5.6703568,-0.06352998,8.981093
112,5.599999999999988,3.3477564,-1.7788234,2.0844507,-4.8000264,-0.053297993,5.736025
113,5.649999999999988,3.1196332,-1.3016003,2.9846253,-7.2072935,2.44621,2.101682
114,5.699999999999988,2.40075,0.17744938,4.4675164,-2.2229385,-2.5439484,5.07629
115,5.749999999999988,7.947049,2.5941758,3.6732023,7.0860367,-0.17547104,0.6892087
116,5.799999999999987,3.5377066,-0.52057916,3.0299327,3.7368155,3.739717,-4.798041
117,5.849999999999987,3.360257,-1.3021492,3.104998,8.733541,0.007941248,-4.931057
118,5.899999999999987,3.117682,-1.9268198,2.2706203,9.779953,-0.84971356,-8.017301
119,5.949999999999987,3.330804,-2.3658698,1.5871048,8.59747,-4.2803326,-9.950842
120,5.999999999999987,3.4624581,-1.618936,1.2766598,4.2197046,-3.8099666,-9.997573
121,6.0499999999999865,2.8768141,-1.5839949,0.8376099,3.7006216,-2.9035952,-8.29555
122,6.099999999999986,1.2244617,-2.250497,-0.0035367915,4.9980993,-5.711743,-4.697401
123,6.149999999999986,-0.064272046,-2.7519898,-0.25300255,-1.7521143,-2.9153545,-4.6903763
124,6.199999999999986,-2.3233063,-4.496055,2.2637298,-5.0877438,-0.9634872,-2.8586967
125,6.249999999999986,-2.8265672,-4.4100747,1.3410538,-1.7794504,1.1859949,2.4970644
126,6.299999999999986,0.11945819,-3.2362864,0.19190145,0.505491,3.4445164,8.244696
127,6.349999999999985,3.7696712,-2.4246538,-0.5275307,-1.0230466,4.8608074,11.548255
128,6.399999999999985,3.539353,-3.187686,0.40295035,-6.4782257,0.3275765,10.236879
129,6.449999999999985,3.4758124,-3.6725314,1.8999888,-5.009706,0.021685716,10.868973
130,6.499999999999985,3.3032415,-2.3686748,0.9217001,-3.312264,-0.06658431,9.179472
131,6.549999999999985,3.375197,-2.0940247,2.0603642,-6.1651573,-0.8755226,6.9052205
132,6.5999999999999845,3.8310163,-0.2821506,1.0168276,-4.990158,0.8226828,3.2036827
133,6.649999999999984,5.892966,1.0754896,6.0303516,-8.116567,1.1746938,1.3255776
134,6.699999999999984,5.376045,2.0106661,8.618369,-6.0183973,-0.61437774,-0.6614143
135,6.749999999999984,4.4512963,-0.87675846,4.1662188,7.7413425,4.6520443,-2.679713
136,6.799999999999984,3.749792,-0.8511472,2.7276592,7.509061,2.9417744,-4.898223
137,6.849999999999984,4.026881,-2.7494287,2.0598154,10.616227,1.5845845,-8.015926
138,6.8999999999999835,3.5434995,-2.7638197,0.36855808,7.6930842,-0.52748215,-9.770179
139,6.949999999999983,2.9985287,-1.6386932,0.43746454,4.4948993,0.17363845,-8.241946
140,6.999999999999983,2.2053115,-1.5760676,0.06915038,4.0139956,-2.3270912,-6.92935
141,7.049999999999983,1.0164617,-2.0441437,-0.29227313,4.147317,-2.5877779,-4.069737
142,7.099999999999983,-0.10714039,-2.3572717,-0.34062964,1.4376713,-1.8234328,-2.36863
143,7.149999999999983,-2.0309112,-4.428551,-0.5956445,-7.0721397,1.395827,-5.1098876
144,7.199999999999982,-5.2134137,-6.34848,1.0149373,-6.564511,0.4775439,-1.9147571
145,7.249999999999982,0.87108743,-3.1831737,-0.039026666,1.1588113,0.33735034,9.09838
146,7.299999999999982,4.5389233,-2.034265,0.8641968,3.4768922,1.2776246,10.463969
147,7.349999999999982,3.5322793,-1.4003257,-0.39971846,-1.2754866,4.128227,7.7498946
148,7.399999999999982,2.7969925,-2.1192698,1.8428514,-3.248734,2.866485,8.942761
149,7.4499999999999815,3.44203,-1.4306931,1.3618478,-4.216345,2.560289,8.2845545
150,7.499999999999981,3.152806,-1.2520853,1.5205156,-5.583614,2.0740402,7.2784595
151,7.549999999999981,3.7832086,0.45069703,1.9620047,-5.1799846,3.515224,4.6766315
152,7.599999999999981,4.7172875,2.869253,5.347934,-7.5195985,2.7107146,1.5578591
153,7.649999999999981,6.077367,3.2410426,7.983088,-0.53878313,2.9721649,-1.4454598
154,7.699999999999981,5.001633,1.6562551,6.4582424,6.755559,2.706744,-3.106097
155,7.7499999999999805,3.602893,-1.2311084,3.5202663,9.95298,1.0323622,-4.921436
156,7.79999999999998,3.4121501,-2.5978346,1.7306497,10.866071,-2.0042489,-7.6949167
157,7.84999999999998,3.881629,-1.9900552,1.4564265,5.2273264,-2.9620855,-8.920618
158,7.89999999999998,3.5664277,-1.940479,1.2621468,4.012774,-2.133294,-8.647866
159,7.94999999999998,2.3519664,-2.1510403,0.12543415,5.339573,-5.666233,-6.573368
160,7.99999999999998,0.3840468,-3.084936,0.20879267,-1.0204504,-4.0770674,-2.8385382
161,8.04999999999998,-0.6082672,-2.575821,0.6535137,-0.68111473,-1.0862712,-0.9060659
162,8.09999999999998,-2.2840357,-2.6153355,0.11195775,-4.6497536,0.18829921,-2.606104
163,8.14999999999998,-5.0915775,-4.779425,1.7565659,-0.34315357,-0.5377141,1.9468275
164,8.199999999999982,-1.7833967,-3.7259493,0.23391607,0.5448918,4.251775,9.227577
165,8.249999999999982,3.998587,-2.4277637,0.18720604,-0.17150041,3.4060318,11.3491125
166,8.299999999999983,2.9843206,-2.5197814,0.32879966,-2.9961412,0.042913284,10.061867
167,8.349999999999984,2.707231,-2.9402325,1.20007,-3.4119878,1.64674,9.330814
168,8.399999999999984,2.2948902,-2.3259895,0.38331506,-4.3214135,1.3987287,7.4604974
169,8.449999999999985,2.364711,-2.2038481,1.0896367,-5.048343,-0.70707655,6.3158884
170,8.499999999999986,3.7571707,-1.3359317,1.4267296,-3.5975382,-1.0980303,4.88906
171,8.549999999999986,5.180302,-0.38740066,3.696252,-9.360899,2.090228,4.035834
172,8.599999999999987,7.1248674,0.5014317,6.111637,-3.0547843,-0.06414085,0.40958515
173,8.649999999999988,5.3991566,-0.10250599,4.7119823,4.907386,5.36187,-2.4448354
174,8.699999999999989,4.470749,-1.5374678,2.982552,11.270159,1.0306823,-5.797722
175,8.74999999999999,4.1483517,-3.363672,0.7338233,9.621281,-0.012675454,-10.66418
176,8.79999999999999,2.906633,-3.0813384,1.0346946,7.835721,-3.690695,-10.735041
177,8.84999999999999,3.6444812,-2.0084708,0.60198635,1.4369078,-0.62858033,-8.565094
178,8.899999999999991,2.7835772,-1.7339426,0.7526049,4.9654183,-3.7253616,-7.342142
179,8.949999999999992,1.9263319,-2.4525821,-0.822487,0.98807454,-2.519819,-5.600718
180,8.999999999999993,-0.5674112,-3.629724,0.24105065,-2.9449813,-1.5086844,-6.571688
181,9.049999999999994,-4.660028,-6.046999,0.22147635,-6.513656,6.8955994,-4.3472223
182,9.099999999999994,-2.8552275,-4.8807726,-0.81126684,-3.0963233,12.4628725,2.2026274
183,9.149999999999995,1.8840733,-2.1941524,0.64168376,-0.15821409,-4.2868996,8.476671
184,9.199999999999996,3.3378778,-1.4569752,0.9620073,-1.3486377,-1.1488848,8.529664
185,9.249999999999996,1.7509559,-1.4925871,0.8208406,-6.53244,2.4889705,5.6020923
186,9.299999999999997,1.7899824,-2.55271,1.607106,-7.8485494,-0.98639464,6.0423737
187,9.349999999999998,2.458863,-2.5886877,2.0070682,-3.003319,-7.1749177,8.210029
188,9.399999999999999,3.6465542,-2.2436066,1.4231318,-8.808829,1.5486962,9.79385
189,9.45,5.7772884,0.49344343,0.8474884,-4.7364964,0.56245416,6.639189
190,9.5,5.968031,2.1300023,6.737893,-7.8920736,-1.557401,4.0002513
191,9.55,8.860395,2.3636136,5.95364,-0.22220223,4.6706758,-2.2908974
192,9.600000000000001,4.4316,-1.2516584,2.6799123,8.301353,2.482098,-5.5029798
193,9.650000000000002,4.3225694,-2.1598213,1.4800254,8.379086,1.0874928,-8.555321
194,9.700000000000003,3.8920565,-2.8901076,1.1835446,8.553335,-1.6146696,-10.694876
195,9.750000000000004,3.2886064,-2.409165,1.0970153,3.7762163,0.41172317,-9.235977
196,9.800000000000004,2.830653,-1.9778594,0.02134271,5.720906,-3.323107,-7.593513
197,9.850000000000005,1.5750309,-1.9165143,0.13080032,3.5474472,-3.2690454,-4.90143
198,9.900000000000006,1.0723796,-2.2087874,0.06994311,-1.035722,-2.2643247,-3.4235942
199,9.950000000000006,-1.4230708,-2.9345005,-0.307274,-3.0447052,1.0488557,-3.5611916
