id,timestamp,acc_x,acc_y,acc_z,gyro_x,gyro_y,gyro_z
0,0,0.5011268,-0.8330364,-0.05195425,0.2182316,-0.06841691,-0.2640465
1,0.01,0.51393247,-0.8330364,-0.06299148,0.19685133,-0.016035212,-0.24740042
2,0.02,0.5333848,-0.825597,-0.063418336,0.15699236,0.049632803,-0.22708915
3,0.03,0.5458855,-0.8152305,-0.055613004,0.12599096,0.093462385,-0.21029036
4,0.04,0.5594229,-0.8063885,-0.047258858,0.09758572,0.10919216,-0.19593503
5,0.05,0.56802094,-0.7994369,-0.033172667,0.0926988,0.09697486,-0.19211712
6,0.060000000000000005,0.5889368,-0.7908998,0.011281146,0.09911288,0.06154467,-0.19440787
7,0.07,0.5889368,-0.7908998,0.011281146,0.1253801,0.007941248,-0.21120666
8,0.08,0.60698664,-0.8092545,0.023416,0.19456059,-0.03924809,-0.25213462
9,0.09,0.60698664,-0.8092545,0.023416,0.22785273,-0.04153884,-0.2764165
10,0.09999999999999999,0.6193654,-0.82773125,0.01597654,0.22785273,-0.04153884,-0.2764165
11,0.10999999999999999,0.6307075,-0.83547556,0.0049393126,0.23533584,-0.05009095,-0.29947668
12,0.11999999999999998,0.62015814,-0.82486516,-0.018171793,0.19272798,-0.036957346,-0.34513888
13,0.12999999999999998,0.61247474,-0.82010883,-0.029026084,0.1470658,0.020005837,-0.376293
14,0.13999999999999999,0.60515726,-0.81968194,-0.032562874,0.12492194,0.06261369,-0.40591997
15,0.15,0.58332676,-0.8213284,-0.04396598,0.09636399,0.15760323,-0.45662177
16,0.16,0.5810095,-0.81846243,-0.056161813,0.07651087,0.20861048,-0.48273626
17,0.17,0.5810095,-0.81846243,-0.056161813,0.02855795,0.24862215,-0.52106804
18,0.18000000000000002,0.58747333,-0.8058397,-0.07677277,-0.031612277,0.3115413,-0.5707009
19,0.19000000000000003,0.58546096,-0.79992473,-0.07488242,-0.07467828,0.36010507,-0.5992588
20,0.20000000000000004,0.60595,-0.79492444,-0.07524829,-0.16035213,0.38148534,-0.6389651
21,0.21000000000000005,0.6340004,-0.7946805,-0.054454394,-0.25411993,0.31612277,-0.65041876
22,0.22000000000000006,0.71559054,-0.77547204,0.015793605,-0.29932398,0.29749137,-0.65179324
23,0.23000000000000007,0.71559054,-0.77547204,0.015793605,-0.279929,0.3501785,-0.68737614
24,0.24000000000000007,0.7442508,-0.7621176,0.013476395,-0.16584991,0.45433104,-0.82650065
25,0.25000000000000006,0.7507755,-0.74608016,-0.011525063,-0.16584991,0.45433104,-0.82650065
26,0.26000000000000006,0.7476046,-0.7408359,-0.039392542,-0.12996158,0.43004912,-0.8689558
27,0.2700000000000001,0.7535805,-0.7437629,-0.050978586,-0.10980303,0.38866302,-0.90056807
28,0.2800000000000001,0.7539464,-0.7568734,-0.03378246,-0.079107046,0.38759398,-0.9211848
29,0.2900000000000001,0.75089747,-0.75925165,-0.015244792,0.0027488936,0.41126502,-0.91828316
30,0.3000000000000001,0.7257131,-0.7466899,0.0062808543,0.0027488936,0.41126502,-0.91828316
31,0.3100000000000001,0.6958943,-0.7273595,0.006707709,0.033444874,0.40546182,-0.9082039
32,0.3200000000000001,0.69241846,-0.7152246,0.0026221042,0.03863723,0.4569272,-0.8228355
33,0.3300000000000001,0.69241846,-0.7152246,0.0026221042,0.03863723,0.4569272,-0.8228355
34,0.34000000000000014,0.7097975,-0.684857,0.005366167,0.0061086523,0.6046039,-0.6939429
35,0.35000000000000014,0.7379089,-0.6788201,0.015305771,-0.026572637,0.67149365,-0.65041876
36,0.36000000000000015,0.7560197,-0.6679048,0.04896627,-0.082924955,0.64812803,-0.61758476
37,0.37000000000000016,0.7659593,-0.6623557,0.077260606,-0.0720821,0.6762278,-0.6065892
38,0.38000000000000017,0.7780942,-0.6457084,0.07378479,-0.053603426,0.6507242,-0.5917757
39,0.3900000000000002,0.7780942,-0.6457084,0.07378479,-0.053603426,0.6507242,-0.5917757
40,0.4000000000000002,0.7676058,-0.61893857,0.083602436,-0.04642576,0.45066583,-0.52855116
41,0.4100000000000002,0.78516775,-0.6130236,0.07683375,-0.060628377,0.37125334,-0.49037206
42,0.4200000000000002,0.79108274,-0.61741406,0.073540874,-0.08506299,0.32727104,-0.4560109
43,0.4300000000000002,0.7906559,-0.6261951,0.06927233,-0.12568553,0.29657507,-0.38881573
44,0.4400000000000002,0.7906559,-0.6261951,0.06927233,-0.15271631,0.269697,-0.33261612
45,0.45000000000000023,0.7794357,-0.61942637,0.0705529,-0.16371189,0.21471913,-0.26282477
46,0.46000000000000024,0.77492326,-0.6008887,0.07366284,-0.14401148,0.14187345,-0.18524489
47,0.47000000000000025,0.77492326,-0.6008887,0.07366284,-0.14401148,0.14187345,-0.18524489
48,0.48000000000000026,0.7624225,-0.6025351,0.05408852,-0.012980887,-0.0047342055,0.0033597588
49,0.49000000000000027,0.7624225,-0.6025351,0.05408852,0.05299256,-0.022602014,0.06490443
50,0.5000000000000002,0.7778503,-0.6307075,0.040002335,0.06994407,-0.015118915,0.0870483
51,0.5100000000000002,0.7841921,-0.6384519,0.043051295,0.07819075,0.00580322,0.1151481
52,0.5200000000000002,0.7851068,-0.6433302,0.05286894,0.07819075,0.00580322,0.1151481
53,0.5300000000000002,0.77724046,-0.6457694,0.058174126,0.08903361,0.009468411,0.14095716
54,0.5400000000000003,0.7660813,-0.6463792,0.056100838,0.100029185,0.0022907446,0.15821409
55,0.5500000000000003,0.7646178,-0.64491564,0.056588665,0.109650314,-0.002443461,0.1863139
56,0.5600000000000003,0.76022726,-0.64491564,0.05652769,0.120493166,0.002443461,0.20357084
57,0.5700000000000003,0.7607151,-0.6522332,0.059576645,0.12034045,0.00870483,0.22556199
58,0.5800000000000003,0.76406896,-0.66723406,0.07537025,0.10934488,-0.002443461,0.24388795
59,0.5900000000000003,0.7619957,-0.6711367,0.08707825,0.06582073,-0.08078693,0.24633141
60,0.6000000000000003,0.75120234,-0.66729504,0.09616415,0.06582073,-0.08078693,0.24633141
61,0.6100000000000003,0.76498365,-0.6445498,0.016647313,0.021380283,-0.17379116,0.22082779
62,0.6200000000000003,0.7360795,-0.6537577,0.089517415,-0.04428773,-0.19868392,0.18005253
63,0.6300000000000003,0.72516423,-0.6654047,0.11537258,-0.04428773,-0.19868392,0.18005253
64,0.6400000000000003,0.7310793,-0.67430764,0.06488183,-0.071318515,-0.20005837,0.18967366
65,0.6500000000000004,0.7544343,-0.6887597,0.07408969,-0.11881329,-0.23945917,0.18096884
66,0.6600000000000004,0.7570564,-0.6931502,0.060491335,-0.15363261,-0.2947425,0.14309518
67,0.6700000000000004,0.7551051,-0.6897963,0.056039855,-0.12996158,-0.32513303,0.11148291
68,0.6800000000000004,0.7498608,-0.6864425,0.04329521,-0.12996158,-0.32513303,0.11148291
69,0.6900000000000004,0.7361405,-0.7051631,0.009756667,-0.026572637,-0.32696563,0.040011674
70,0.7000000000000004,0.7444947,-0.7066266,0.004024625,0.0050396384,-0.27931812,0.018020526
71,0.7100000000000004,0.75089747,-0.6977846,-0.002866021,0.017715093,-0.1693624,-0.008093964
72,0.7200000000000004,0.763947,-0.69382095,0.0011586042,0.0050396384,-0.09865474,-0.01817324
73,0.7300000000000004,0.77406955,-0.693699,0.011951917,-0.011148291,-0.058490347,-0.020922136
74,0.7400000000000004,0.78474087,-0.6970529,0.023781875,-0.03313944,-0.0842994,-0.013591751
75,0.7500000000000004,0.78224075,-0.70498013,-0.0160985,-0.04596761,-0.16493362,0.0050396384
76,0.7600000000000005,0.79644895,-0.7003457,0.02494048,-0.07925977,-0.3359759,0.03604105
77,0.7700000000000005,0.79150957,-0.70327276,0.02933098,-0.06536258,-0.36758816,0.02031127
78,0.7800000000000005,0.76150787,-0.6889427,0.0005488125,-0.07040222,-0.35903606,0.016646078
79,0.7900000000000005,0.74534833,-0.66278255,-0.009695687,-0.12950343,-0.33017266,0.034513887
80,0.8000000000000005,0.7309573,-0.63796407,0.0015854583,-0.20616703,-0.24755314,0.058184914
81,0.8100000000000005,0.7216275,-0.626317,0.0028050416,-0.27550024,-0.17592919,0.08674286
82,0.8200000000000005,0.73101825,-0.6183897,0.032501895,-0.35246924,-0.087201014,0.14950927
83,0.8300000000000005,0.7416896,-0.61875564,0.037990022,-0.35521814,-0.07498371,0.16661349
84,0.8400000000000005,0.77150846,-0.6249145,0.03591673,-0.34040466,-0.11636983,0.20112738
85,0.8500000000000005,0.8002906,-0.6286342,0.036770437,-0.2182316,-0.22174409,0.20234911
86,0.8600000000000005,0.8009004,-0.62381685,0.019147458,-0.2182316,-0.22174409,0.20234911
87,0.8700000000000006,0.8009004,-0.62381685,0.019147458,-0.2182316,-0.22174409,0.20234911
88,0.8800000000000006,0.8009004,-0.62381685,0.019147458,-0.2182316,-0.22174409,0.20234911
89,0.8900000000000006,0.7748013,-0.6626606,-0.031282313,0.0143553335,-0.21624629,0.43371433
90,0.9000000000000006,0.77925277,-0.6752833,-0.030123709,0.010537425,-0.25045475,0.49266282
91,0.9100000000000006,0.7676058,-0.688028,-0.022806209,0.010537425,-0.25045475,0.49266282
92,0.9200000000000006,0.75431234,-0.6876011,-0.014635001,-0.0143553335,-0.3932445,0.5468771
93,0.9300000000000006,0.7332135,-0.6861986,0.0012195833,-0.0056505036,-0.4213443,0.56169057
94,0.9400000000000006,0.7332135,-0.6861986,0.0012195833,-0.0056505036,-0.4213443,0.56169057
95,0.9500000000000006,0.69510156,-0.6766858,0.0065857503,0.022296581,-0.4173737,0.5850562
96,0.9600000000000006,0.6893695,-0.66894144,-0.009634708,0.12858713,-0.3042109,0.6954701
97,0.9700000000000006,0.7036996,-0.6786981,-0.023050126,0.16340645,-0.25518894,0.74189585
98,0.9800000000000006,0.7151027,-0.68741816,-0.039392542,0.19226983,-0.19883664,0.7761043
99,0.9900000000000007,0.72845715,-0.70443135,-0.0482955,0.19318613,-0.16829337,0.77595156
100,1.0000000000000007,0.7124196,-0.74004316,-0.03146525,0.16768251,-0.16966783,0.7464773
101,1.0100000000000007,0.7124196,-0.74004316,-0.03146525,0.12751812,-0.18219055,0.7058548
102,1.0200000000000007,0.679125,-0.74797046,-0.012683666,0.083383106,-0.099571034,0.60994893
103,1.0300000000000007,0.6126577,-0.74345803,0.0036587503,0.083383106,-0.099571034,0.60994893
104,1.0400000000000007,0.56966734,-0.7461411,0.013476395,0.110872045,0.015271631,0.5899431
105,1.0500000000000007,0.5568008,-0.7633372,-0.006890646,0.16310102,0.09117164,0.5655085
106,1.0600000000000007,0.57247245,-0.8043152,-0.035489876,0.19150625,0.09010262,0.52778757
107,1.0700000000000007,0.5775337,-0.8213284,-0.04402696,0.20265454,0.086437434,0.50594914
108,1.0800000000000007,0.69906515,-0.91676074,-0.10201815,0.19929479,0.05222898,0.48517972
109,1.0900000000000007,0.7794357,-0.948531,-0.13201989,0.13500121,0.024892759,0.43844852
110,1.1000000000000008,0.8269995,-0.9610317,-0.15281379,0.040011674,-0.0062613687,0.36086863
111,1.1100000000000008,0.8104131,-0.95767784,-0.15013072,-0.02565634,-0.026267206,0.3202461
112,1.1200000000000008,0.74516547,-0.94090855,-0.120738745,-0.14889841,-0.06612616,0.29626966
113,1.1300000000000008,0.74516547,-0.94090855,-0.120738745,-0.14889841,-0.06612616,0.29626966
114,1.1400000000000008,0.57155776,-0.86431867,-0.056710627,-0.39660427,-0.096516706,0.5910121
115,1.1500000000000008,0.47472283,-0.79102176,0.032562874,-0.44532076,-0.08811731,0.7325801
116,1.1600000000000008,0.44484302,-0.7280913,0.10360361,-0.47158796,-0.036651913,0.96577793
117,1.1700000000000008,0.45557535,-0.6777834,0.12311694,-0.45891252,-0.026572637,1.0844386
118,1.1800000000000008,0.4764912,-0.6396715,0.10872585,-0.45555276,-0.039858956,1.1432343
119,1.1900000000000008,0.56460613,-0.6120479,0.052686002,-0.49846604,-0.07422013,1.1957687
120,1.2000000000000008,0.6447328,-0.6052792,0.026160065,-0.5143485,-0.035430185,1.1539245
121,1.2100000000000009,0.76120293,-0.6290611,-0.0016464376,-0.47998735,0.02321288,1.052368
122,1.2200000000000009,0.8316339,-0.65784323,-0.009817646,-0.39813143,0.03940081,0.88147855
123,1.2300000000000009,0.8316339,-0.65784323,-0.009817646,-0.39813143,0.03940081,0.88147855
124,1.2400000000000009,0.78400916,-0.7175419,0.010427438,-0.022143865,-0.16050485,0.31581733
125,1.2500000000000009,0.6413789,-0.77882594,0.02774552,0.26648995,-0.310625,-0.027947085
126,1.260000000000001,0.50454164,-0.85181797,0.006341833,0.46303585,-0.39278635,-0.23304509
127,1.270000000000001,0.35288644,-0.95036036,-0.023720896,0.61376685,-0.32727104,-0.32788193
128,1.280000000000001,0.16805859,-1.0321944,-0.112750486,0.5288566,-0.2237294,-0.18325958
129,1.290000000000001,0.12848312,-1.0267063,-0.15561883,0.35460728,-0.16600263,-0.0010690142
130,1.300000000000001,0.13250773,-0.99121636,-0.1925722,0.17623462,-0.15470162,0.11407909
131,1.310000000000001,0.19647488,-0.936762,-0.18623038,-0.069485925,-0.11102476,0.16493362
132,1.320000000000001,0.27239394,-0.8966987,-0.15189911,-0.24648413,-0.012064588,0.1339322
133,1.330000000000001,0.4036211,-0.90304047,-0.10372557,-0.24648413,-0.012064588,0.1339322
134,1.340000000000001,0.5183839,-0.8729168,-0.05079565,-0.48533243,0.2182316,0.058184914
135,1.350000000000001,0.5183839,-0.8729168,-0.05079565,-0.472657,0.1779145,0.026572637
136,1.360000000000001,0.5183839,-0.8729168,-0.05079565,-0.472657,0.1779145,0.026572637
137,1.370000000000001,0.65052575,-0.6802836,0.029087063,-0.3031419,-0.020005837,0.0015271631
138,1.380000000000001,0.65052575,-0.6802836,0.029087063,-0.11804971,-0.13973543,-0.06536258
139,1.390000000000001,0.65052575,-0.6802836,0.029087063,-0.11804971,-0.13973543,-0.06536258
140,1.400000000000001,0.65052575,-0.6802836,0.029087063,-0.11804971,-0.13973543,-0.06536258
141,1.410000000000001,0.6182678,-0.679003,0.03603869,0.093004234,-0.2582433,-0.17608191
142,1.420000000000001,0.61156005,-0.6868694,0.028294332,0.28313604,-0.3707952,-0.29794952
143,1.430000000000001,0.5579594,-0.78839964,-0.0582351,0.41798455,-0.45188758,-0.42149702
144,1.440000000000001,0.5714967,-0.822487,-0.07573613,0.35521814,-0.38759398,-0.4454735
145,1.450000000000001,0.57546043,-0.8482203,-0.06854059,0.310625,-0.28420505,-0.48899764
146,1.460000000000001,0.55100775,-0.83767086,-0.06402813,0.310625,-0.28420505,-0.48899764
147,1.470000000000001,0.55100775,-0.83767086,-0.06402813,0.34238997,-0.29871312,-0.47525316
148,1.480000000000001,0.52557945,-0.8260848,-0.06250364,0.36346483,-0.3631594,-0.41248676
149,1.490000000000001,0.4941752,-0.7965709,-0.06073525,0.35124752,-0.4118759,-0.35842517
150,1.500000000000001,0.5023464,-0.78724104,-0.05640573,0.32543847,-0.44868052,-0.3107777
151,1.5100000000000011,0.52039623,-0.7807773,-0.05725944,0.28252518,-0.45249844,-0.2817616
152,1.5200000000000011,0.52039623,-0.7807773,-0.05725944,0.24923302,-0.41615194,-0.29061913
153,1.5300000000000011,0.54466593,-0.7748013,-0.055613004,0.20708331,-0.3297145,-0.31810808
154,1.5400000000000011,0.5505809,-0.77474034,-0.057015523,0.17837265,-0.23839016,-0.34315357
155,1.5500000000000012,0.5544836,-0.7796187,-0.058844898,0.14950927,-0.14462234,-0.36453384
156,1.5600000000000012,0.55259323,-0.78400916,-0.058844898,0.116980694,-0.03756821,-0.38713586
157,1.5700000000000012,0.5477149,-0.79083884,-0.056344748,0.09911288,0.07223482,-0.3950771
158,1.5800000000000012,0.5433854,-0.7938268,-0.059759583,0.08628472,0.13683382,-0.3979787
159,1.5900000000000012,0.53405553,-0.8040713,-0.048051585,0.074830994,0.19532417,-0.38835758
160,1.6000000000000012,0.52686,-0.8070593,-0.055917896,0.08277224,0.25518894,-0.37400225
161,1.6100000000000012,0.52496964,-0.81248647,-0.060247418,0.086132,0.2846632,-0.34956762
162,1.6200000000000012,0.5333848,-0.8216943,-0.06829667,0.09315695,0.30176744,-0.3239113
163,1.6300000000000012,0.5613132,-0.85559875,-0.06079623,0.09728029,0.22617286,-0.2930626
164,1.6400000000000012,0.5613132,-0.85559875,-0.06079623,0.09728029,0.22617286,-0.2930626
165,1.6500000000000012,0.5740579,-0.8623674,-0.06256463,0.09162979,0.15897769,-0.28787026
166,1.6600000000000013,0.5857659,-0.86474556,-0.06335735,0.06994407,0.11377365,-0.28053987
167,1.6700000000000013,0.6144871,-0.86602616,-0.05768629,0.031001411,0.09636399,-0.30268374
168,1.6800000000000013,0.62717074,-0.8620625,-0.06445498,-0.01038471,0.10934488,-0.36163223
169,1.6900000000000013,0.61088926,-0.8484642,-0.054515377,-0.065515295,0.16508633,-0.43325618
170,1.7000000000000013,0.5626548,-0.79169255,-0.038172957,-0.14538592,0.51251596,-0.42531493
171,1.7100000000000013,0.55838627,-0.7560807,-0.021586625,-0.15867224,0.7675522,-0.38606682
172,1.7200000000000013,0.5605205,-0.7321159,-0.009207855,-0.14630222,0.89461213,-0.36819902
173,1.7300000000000013,0.567899,-0.68863773,0.011768979,-0.086437434,1.0415252,-0.32436943
174,1.7400000000000013,0.59290045,-0.6650388,0.028782167,-0.0047342055,1.0396926,-0.25534168
175,1.7500000000000013,0.63211006,-0.6544894,0.052442085,0.08368854,0.9586003,-0.18845193
176,1.7600000000000013,0.6744296,-0.6639412,0.06860156,0.1956296,0.8373435,-0.11377365
177,1.7700000000000014,0.8240115,-0.6826008,0.037685126,0.29626966,0.6452264,-0.10140363
178,1.7800000000000014,1.0095102,-0.69290626,-0.034941066,0.31597003,0.28985557,-0.2649628
179,1.7900000000000014,1.1304318,-0.722969,-0.072321296,0.2182316,-0.012675454,-0.54321194
180,1.8000000000000014,1.0511589,-0.8013272,-0.041953668,0.04917465,-0.10338894,-0.838718
181,1.8100000000000014,1.0511589,-0.8013272,-0.041953668,-0.053603426,-0.04550946,-0.9436341
182,1.8200000000000014,0.8009004,-0.84175646,0.0052442085,-0.16126843,0.18341228,-0.8523097
183,1.8300000000000014,0.8009004,-0.84175646,0.0052442085,-0.16126843,0.18341228,-0.8523097
184,1.8400000000000014,0.67339295,-0.687906,0.041099958,-0.16126843,0.18341228,-0.8523097
185,1.8500000000000014,0.65997756,-0.670405,0.051466417,-0.09896017,0.1049161,-0.5151121
186,1.8600000000000014,0.65997756,-0.670405,0.051466417,-0.09896017,0.1049161,-0.5151121
187,1.8700000000000014,0.68156415,-0.67613703,0.04006331,-0.12996158,-0.0050396384,-0.51007247
188,1.8800000000000014,0.70376056,-0.6931502,0.029270003,-0.16661349,-0.015118915,-0.51144695
189,1.8900000000000015,0.70876086,-0.7106512,0.021769563,-0.20082195,-0.017715093,-0.5213735
190,1.9000000000000015,0.70876086,-0.7106512,0.021769563,-0.20082195,-0.017715093,-0.5213735
191,1.9100000000000015,0.7206518,-0.7106512,0.0043295207,-0.23625213,-0.004581489,-0.56321776
192,1.9200000000000015,0.7256521,-0.7077242,-0.007378479,-0.23136522,0.024587326,-0.5890268
193,1.9300000000000015,0.73638445,-0.70473623,-0.011647021,-0.2098322,0.07727446,-0.58062744
194,1.9400000000000015,0.75528795,-0.6817471,-0.018110814,-0.19303341,0.11530081,-0.55863625
195,1.9500000000000015,0.7619957,-0.66705114,-0.015305771,-0.16432275,0.15943582,-0.5132795
196,1.9600000000000015,0.7750452,-0.6543065,-0.00798827,-0.14034629,0.17928895,-0.44959682
197,1.9700000000000015,0.7719353,-0.6401593,0.0005488125,-0.107665,0.18081611,-0.37980548
198,1.9800000000000015,0.7601053,-0.63241494,0.010549396,-0.07269296,0.17256944,-0.27183503
199,1.9900000000000015,0.7601053,-0.63241494,0.010549396,-0.06078109,0.16310102,-0.20937407
200,2.0000000000000013,0.75089747,-0.64168376,0.012561709,-0.052381694,0.15347989,-0.16157386
201,2.010000000000001,0.7484583,-0.6494891,0.016525354,-0.048716504,0.13148874,-0.123547494
202,2.020000000000001,0.7537635,-0.65576994,0.025428312,-0.046120327,0.093767814,-0.100029185
203,2.0300000000000007,0.7532757,-0.6577213,0.026891813,-0.043218717,0.010842858,-0.06918049
204,2.0400000000000005,0.7596785,-0.65820915,0.021098793,-0.027030786,-0.040317107,-0.04550946
205,2.0500000000000003,0.7596785,-0.65820915,0.021098793,-0.027030786,-0.040317107,-0.04550946
206,2.06,0.7574832,-0.6485744,-0.007744354,0.04520403,-0.08246681,0.0015271631
207,2.07,0.7565076,-0.64467174,-0.015122834,0.04520403,-0.08246681,0.0015271631
208,2.0799999999999996,0.7555929,-0.6447328,-0.0190255,0.074067414,-0.0346666,0.032070424
209,2.0899999999999994,0.7555929,-0.6447328,-0.0190255,0.07620544,-0.0053450707,0.046731193
210,2.099999999999999,0.7533366,-0.64753777,0.016525354,0.038331795,0.10430524,0.10720685
211,2.109999999999999,0.7561417,-0.65576994,0.029818814,0.00030543262,0.0870483,0.12904528
212,2.1199999999999988,0.7619347,-0.67174655,0.04664906,-0.031306844,0.04046982,0.1498147
213,2.1299999999999986,0.76382506,-0.6775395,0.054027542,-0.052687127,-0.056046885,0.16966783
214,2.1399999999999983,0.752178,-0.67229533,0.045124583,-0.044745877,-0.14752395,0.17867808
215,2.149999999999998,0.7333355,-0.66369724,0.02628202,0.021227567,-0.27885997,0.17715092
216,2.159999999999998,0.72522527,-0.6589409,0.005183229,0.021227567,-0.27885997,0.17715092
217,2.1699999999999977,0.73284763,-0.6711977,-0.01750102,0.046883907,-0.2591596,0.16371189
218,2.1799999999999975,0.73894554,-0.6882109,-0.03280679,0.049938235,-0.16279559,0.14752395
219,2.1899999999999973,0.73894554,-0.6882109,-0.03280679,0.032070424,-0.07147124,0.13607024
220,2.199999999999997,0.74608016,-0.7032117,-0.006219875,-0.0027488936,0.010079277,0.11835514
221,2.209999999999997,0.7385187,-0.69784564,0.01750102,-0.043829583,-0.02443461,0.07422013
222,2.2199999999999966,0.7358966,-0.6948576,0.029148044,-0.043829583,-0.02443461,0.07422013
223,2.2299999999999964,0.73687226,-0.68949145,0.030550564,-0.049632803,-0.06963864,0.064599
224,2.239999999999996,0.7433361,-0.6875401,0.01695221,-0.058948494,-0.1282817,0.058643065
225,2.249999999999996,0.75187314,-0.6740027,-0.016769271,-0.057726767,-0.13683382,0.06963864
226,2.259999999999996,0.75187314,-0.6740027,-0.016769271,-0.040775254,-0.11346822,0.07696902
227,2.2699999999999956,0.7260789,-0.655648,-0.03433127,0.010079277,-0.044745877,0.10522154
228,2.2799999999999954,0.7177858,-0.6542455,-0.03731925,0.010079277,-0.044745877,0.10522154
229,2.289999999999995,0.71290743,-0.658636,-0.030977417,0.072540246,0.08750644,0.13561209
230,2.299999999999995,0.7118098,-0.67223436,-0.010366458,0.07086037,0.14492778,0.14019357
231,2.3099999999999947,0.7194932,-0.68674743,0.010854292,0.049785517,0.17654006,0.14126259
232,2.3199999999999945,0.7194932,-0.68674743,0.010854292,0.049785517,0.17654006,0.14126259
233,2.3299999999999943,0.75498307,-0.72052985,0.041343875,-0.03390302,0.077121735,0.13744467
234,2.339999999999994,0.7447386,-0.7249813,0.041282896,-0.058948494,-0.02443461,0.13148874
235,2.349999999999994,0.7621176,-0.7390675,0.020671938,-0.051923547,-0.12812899,0.11728613
236,2.3599999999999937,0.75480014,-0.7271156,-0.037563168,-0.03436117,-0.16218472,0.09682214
237,2.3699999999999934,0.75480014,-0.7271156,-0.037563168,-0.025809057,-0.14385876,0.08582657
238,2.3799999999999932,0.73437214,-0.687906,-0.06500379,-0.035430185,-0.01695151,0.102319926
239,2.389999999999993,0.7001018,-0.6413179,-0.075675145,-0.06841691,0.07819075,0.15317446
240,2.399999999999993,0.7001018,-0.6413179,-0.075675145,-0.12568553,0.13164146,0.23808473
241,2.4099999999999926,0.7557758,-0.6295489,0.0031709166,-0.19883664,0.10094548,0.4457789
242,2.4199999999999924,0.7740086,-0.63174415,0.034087352,-0.17913623,0.03894266,0.49877146
243,2.429999999999992,0.7740086,-0.63174415,0.034087352,-0.17913623,0.03894266,0.49877146
244,2.439999999999992,0.83815867,-0.6805885,0.03390442,-0.095294975,-0.21930063,0.538325
245,2.4499999999999917,0.83815867,-0.6805885,0.03390442,-0.095294975,-0.21930063,0.538325
246,2.4599999999999915,0.83846354,-0.7090658,-0.027684543,-0.11530081,-0.59299743,0.46135598
247,2.4699999999999913,0.83029234,-0.7115659,-0.038416874,-0.11835514,-0.61391956,0.39660427
248,2.479999999999991,0.7832164,-0.69784564,-0.06780884,-0.10781772,-0.45540005,0.2773328
249,2.489999999999991,0.7832164,-0.69784564,-0.06780884,-0.10781772,-0.45540005,0.2773328
250,2.4999999999999907,0.69016224,-0.6682707,-0.0910419,-0.10567969,-0.081855945,0.2489276
251,2.5099999999999905,0.6612581,-0.66546565,-0.08067544,-0.12156218,0.013439035,0.321926
252,2.5199999999999902,0.65979457,-0.67473453,-0.07469948,-0.13316862,0.028099801,0.39752057
253,2.52999999999999,0.670405,-0.69308925,-0.050978586,-0.15027285,-0.030543262,0.47235155
254,2.53999999999999,0.693638,-0.72937185,-0.014695979,-0.182496,-0.20021108,0.55848354
255,2.5499999999999896,0.7311402,-0.781509,0.07012604,-0.2144137,-0.40668353,0.6105598
256,2.5599999999999894,0.7311402,-0.781509,0.07012604,-0.21212296,-0.5348125,0.6195701
257,2.569999999999989,0.73004264,-0.7912047,0.08823685,-0.14966199,-0.5271767,0.590554
258,2.579999999999989,0.6882109,-0.7671789,0.064637914,-0.025809057,-0.3371976,0.54534996
259,2.5899999999999888,0.6946137,-0.7746184,0.016525354,0.09254608,-0.09239337,0.4961753
260,2.5999999999999885,0.67686874,-0.76656914,-0.01981823,0.1470658,0.032375857,0.46043968
261,2.6099999999999883,0.6538186,-0.7473607,-0.06561358,0.18677205,0.14355333,0.41874814
262,2.619999999999988,0.56777704,-0.7544343,-0.13311753,0.070249505,0.18677205,0.40683624
263,2.629999999999988,0.5272868,-0.7678497,-0.12701961,0.070249505,0.18677205,0.40683624
264,2.6399999999999877,0.50191957,-0.78157,-0.11153089,-0.16035213,0.10751228,0.54260105
265,2.6499999999999875,0.5091151,-0.79169255,-0.09524946,-0.24022275,0.09239337,0.6082691
266,2.6599999999999873,0.51484716,-0.81303525,-0.071040735,-0.2947425,0.12751812,0.6603453
267,2.669999999999987,0.5552153,-0.82590187,-0.056344748,-0.3005457,0.23609942,0.6782131
268,2.679999999999987,0.6017424,-0.8354146,-0.0693943,-0.24358252,0.34391713,0.6426302
269,2.6899999999999866,0.6302197,-0.84163445,-0.08610259,-0.21639901,0.3463606,0.59513545
270,2.6999999999999864,0.68613756,-0.87742925,-0.10360361,-0.21471913,0.32070425,0.56107974
271,2.709999999999986,0.70784616,-0.91383386,-0.109762505,-0.23869559,0.30589077,0.4886922
272,2.719999999999986,0.71388316,-0.94450635,-0.104945146,-0.29611692,0.35048392,0.398895
273,2.7299999999999858,0.68156415,-0.95340925,-0.086163566,-0.35262197,0.43783766,0.32238412
274,2.7399999999999856,0.6107064,-0.9348107,-0.08268775,-0.43661594,0.536187,0.29932398
275,2.7499999999999853,0.5195425,-0.863709,-0.07036996,-0.5682574,0.53801954,0.41233405
276,2.759999999999985,0.4656979,-0.7292499,0.0160985,-0.65209866,0.45356745,0.602924
277,2.769999999999985,0.4656979,-0.7292499,0.0160985,-0.6693556,0.30970868,0.81138176
278,2.7799999999999847,0.51106644,-0.6770517,0.083175585,-0.36987892,0.0056505036,1.0983357
279,2.7899999999999845,0.51106644,-0.6770517,0.083175585,-0.20433442,-0.017715093,1.0983357
280,2.7999999999999843,0.51106644,-0.6770517,0.083175585,-0.20433442,-0.017715093,1.0983357
281,2.809999999999984,0.6010107,-0.6250365,0.02207446,-0.04841107,-0.004581489,1.0270172
282,2.819999999999984,0.5939371,-0.70333374,-0.05353971,0.14248432,-0.13469578,0.6214027
283,2.8299999999999836,0.5833877,-0.7662032,-0.03292875,0.12935072,-0.20341812,0.42714754
284,2.8399999999999834,0.5991813,-0.8410857,-0.004085604,0.094989546,-0.26847526,0.33414328
285,2.849999999999983,0.6436961,-0.9079798,0.020123126,0.08811731,-0.29168814,0.26939157
286,2.859999999999983,0.66985613,-0.9521897,0.011159187,0.15149458,-0.30008754,0.129198
287,2.869999999999983,0.585339,-0.9639587,-0.010000584,0.15149458,-0.30008754,0.129198
288,2.8799999999999826,0.4816135,-0.9607878,-0.022318374,0.34254268,-0.4728097,-0.2591596
289,2.8899999999999824,0.27952853,-0.9426159,-0.051832296,0.36636642,-0.5166393,-0.29184088
290,2.899999999999982,0.12451946,-0.9090165,-0.07329696,0.34101552,-0.49113566,-0.19914207
291,2.909999999999982,0.0837244,-0.8879177,-0.10122541,0.29917124,-0.38255435,-0.077579886
292,2.9199999999999817,0.15403338,-0.9076749,-0.15342359,0.17073683,-0.301462,-0.0065668016
293,2.9299999999999815,0.2842239,-0.93718886,-0.18684018,-0.029474247,-0.1881465,-0.07192938
294,2.9399999999999813,0.41618282,-0.92706627,-0.18171792,-0.19211712,-0.019547688,-0.12858713
295,2.949999999999981,0.48954073,-0.8874908,-0.12787332,-0.31780264,0.1151481,-0.18020524
296,2.959999999999981,0.5308846,-0.8127913,-0.015793605,-0.2218968,-0.043066,-0.24007004
297,2.9699999999999807,0.5404583,-0.7774844,0.030123709,-0.08582657,-0.19364429,-0.27290404
298,2.9799999999999804,0.5397876,-0.7565076,0.03670946,0.06261369,-0.3707952,-0.33337972
299,2.9899999999999802,0.5397876,-0.7565076,0.03670946,0.06261369,-0.3707952,-0.33337972
300,2.99999999999998,0.5178351,-0.7388236,-0.026099084,0.21456642,-0.4616614,-0.38728857
301,3.00999999999998,0.5153959,-0.7487022,-0.06597946,0.2996294,-0.49174652,-0.43554693
302,3.0199999999999796,0.5153959,-0.7487022,-0.06597946,0.3202461,-0.44150287,-0.45769078
303,3.0299999999999794,0.52856743,-0.76675206,-0.10512808,0.3051272,-0.3831652,-0.46654832
304,3.039999999999979,0.5374094,-0.7755331,-0.109762505,0.25411993,-0.2773328,-0.4905248
305,3.049999999999979,0.5335677,-0.78285056,-0.10726235,0.23319781,-0.2591596,-0.4908302
306,3.0599999999999787,0.5335677,-0.78285056,-0.10726235,0.21227567,-0.25305092,-0.46028697
307,3.0699999999999785,0.53533614,-0.79102176,-0.08573671,0.18997909,-0.25442538,-0.4213443
308,3.0799999999999783,0.5390558,-0.7904729,-0.070613876,0.18829921,-0.24449882,-0.37491855
309,3.089999999999978,0.5462514,-0.7889485,-0.057381395,0.18829921,-0.24449882,-0.37491855
310,3.099999999999978,0.54808074,-0.78449696,-0.04768571,0.21838433,-0.22586742,-0.29275718
311,3.1099999999999777,0.54808074,-0.78449696,-0.04768571,0.21838433,-0.22586742,-0.29275718
312,3.1199999999999775,0.54808074,-0.78449696,-0.04768571,0.2501493,-0.2415972,-0.25579983
313,3.1299999999999772,0.54808074,-0.78449696,-0.04768571,0.2501493,-0.2415972,-0.25579983
314,3.139999999999977,0.56411827,-0.7809602,-0.04610025,0.36636642,-0.25534168,-0.22204952
315,3.149999999999977,0.62058496,-0.78986317,-0.03420931,0.43050727,-0.29779682,-0.25320363
316,3.1599999999999766,0.6221095,-0.8063885,-0.025733208,0.45799622,-0.33673948,-0.28588495
317,3.1699999999999764,0.61924344,-0.813706,-0.029513916,0.49205196,-0.37690386,-0.38713586
318,3.179999999999976,0.61924344,-0.813706,-0.029513916,0.45753807,-0.34666604,-0.40454552
319,3.189999999999976,0.5730822,-0.83157295,-0.03609967,0.40683624,-0.29565877,-0.39293906
320,3.1999999999999758,0.55411774,-0.8385246,-0.032318957,0.34987307,-0.21303925,-0.38133264
321,3.2099999999999755,0.53759235,-0.83962214,-0.039270584,0.27030787,-0.076816306,-0.3652974
322,3.2199999999999753,0.54051936,-0.8424882,-0.037746105,0.20326541,0.041233405,-0.36377025
323,3.229999999999975,0.5410682,-0.8473665,-0.041587792,0.14462234,0.1957823,-0.38438696
324,3.239999999999975,0.52588433,-0.82992643,-0.041465834,0.09850202,0.3126103,-0.3998113
325,3.2499999999999747,0.53033584,-0.81242543,-0.06262561,0.06582073,0.4503604,-0.4372268
326,3.2599999999999745,0.53033584,-0.81242543,-0.06262561,0.06811147,0.48441613,-0.4605924
327,3.2699999999999743,0.53033584,-0.81242543,-0.06262561,0.06811147,0.48441613,-0.4605924
328,3.279999999999974,0.53033584,-0.81242543,-0.06262561,0.06811147,0.48441613,-0.4605924
329,3.289999999999974,0.56728923,-0.82840204,-0.088846646,0.1142318,0.62858033,-0.5636759
330,3.2999999999999736,0.60235226,-0.8232798,-0.09146875,0.15760323,0.76067996,-0.6226244
331,3.3099999999999734,0.6047914,-0.80968136,-0.09793254,0.18799378,0.8242099,-0.6630942
332,3.319999999999973,0.63302475,-0.7841921,-0.11262852,0.18463401,0.8009971,-0.68875057
333,3.329999999999973,0.68522286,-0.769801,-0.12640981,0.12812899,0.68829244,-0.73761976
334,3.3399999999999728,0.7582759,-0.75760514,-0.12384869,0.04627304,0.56306505,-0.80848014
335,3.3499999999999726,0.8845638,-0.734677,-0.04634417,-0.14874569,0.45906523,-1.0343475
336,3.3599999999999723,0.9113337,-0.72894496,0.008902958,-0.14874569,0.45906523,-1.0343475
337,3.369999999999972,0.9444453,-0.7232129,0.05689356,-0.17944166,0.54412824,-1.14018
338,3.379999999999972,0.9207245,-0.7382138,-0.004085604,-0.15439619,0.7162395,-1.2470814
339,3.3899999999999717,0.8149256,-0.7362015,0.05189327,-0.15439619,0.7344127,-1.270447
340,3.3999999999999715,0.8149256,-0.7362015,0.05189327,-0.08506299,0.7519751,-1.2272283
341,3.4099999999999713,0.71351725,-0.66229475,0.055308107,0.004581489,0.6076582,-1.0548116
342,3.419999999999971,0.7109561,-0.6422936,0.056954544,0.21120666,0.2761111,-0.7646506
343,3.429999999999971,0.7109561,-0.6422936,0.056954544,0.21120666,0.2761111,-0.7646506
344,3.4399999999999706,0.7771795,-0.6214387,0.050063897,0.37659842,0.09330966,-0.54641896
345,3.4499999999999704,0.7952293,-0.6057671,0.040307228,0.34666604,0.15409076,-0.54183745
346,3.45999999999997,0.78900945,-0.6019254,0.029513916,0.28389964,0.20738874,-0.54504454
347,3.46999999999997,0.77175236,-0.60442555,0.050307814,0.13591751,0.31887165,-0.5181664
348,3.47999999999997,0.7623616,-0.629244,0.078785084,0.13591751,0.31887165,-0.5181664
349,3.4899999999999696,0.7671789,-0.64528155,0.08976133,-0.11682798,0.43585235,-0.41508293
350,3.4999999999999694,0.76614225,-0.6540016,0.105920814,-0.20906863,0.30100384,-0.37598756
351,3.509999999999969,0.7582759,-0.6540016,0.11073817,-0.21471913,0.2350304,-0.36102137
352,3.519999999999969,0.7771185,-0.6372933,0.11701902,-0.19257528,0.025350908,-0.31719178
353,3.5299999999999687,0.7926682,-0.61723113,0.11207971,-0.13118331,-0.19272798,-0.26083946
354,3.5399999999999685,0.78693616,-0.60759646,0.09238344,-0.07895433,-0.34972036,-0.20738874
355,3.5499999999999683,0.78224075,-0.59747386,0.07030898,-0.04062254,-0.45433104,-0.12950343
356,3.559999999999968,0.7888265,-0.60381573,0.04853942,-0.025961773,-0.48701233,-0.06078109
357,3.569999999999968,0.7748013,-0.6308905,0.00048783334,-0.043829583,-0.43951756,-0.0
358,3.5799999999999677,0.7748013,-0.6308905,0.00048783334,-0.09162979,-0.32253686,0.05177083
359,3.5899999999999674,0.7651056,-0.6255853,-0.004085604,-0.12950343,-0.20311269,0.08659015
360,3.5999999999999672,0.7595565,-0.6211948,0.008476105,-0.1498147,0.004276057,0.13454308
361,3.609999999999967,0.76730084,-0.6255243,0.019330395,-0.11713341,0.0290161,0.16768251
362,3.619999999999967,0.76730084,-0.6255243,0.019330395,-0.11713341,0.0290161,0.16768251
363,3.6299999999999666,0.7938878,-0.6422936,0.05049075,-0.028405234,-0.081397794,0.23350324
364,3.6399999999999664,0.78169197,-0.6491842,0.05292992,0.005192355,-0.16539176,0.24877487
365,3.649999999999966,0.76522756,-0.6507697,0.047868647,0.005192355,-0.16539176,0.24877487
366,3.659999999999966,0.74595815,-0.6553431,0.027257688,0.019089539,-0.21655174,0.25030205
367,3.6699999999999657,0.7407749,-0.65979457,0.0102445,0.0053450707,-0.1788308,0.25121832
368,3.6799999999999655,0.7447386,-0.66028243,0.003963646,-0.019700404,-0.10323623,0.24465153
369,3.6899999999999653,0.7471777,-0.66320944,0.0074394583,-0.04596761,-0.035124753,0.236863
370,3.699999999999965,0.7471777,-0.66320944,0.0074394583,-0.04596761,-0.035124753,0.236863
371,3.709999999999965,0.7505316,-0.66802675,0.015793605,-0.07544186,-0.027947085,0.2415972
372,3.7199999999999647,0.7614469,-0.6776005,0.048661377,-0.081397794,-0.05971208,0.24663684
373,3.7299999999999645,0.75717837,-0.6630875,0.030428605,-0.08674286,-0.15622878,0.2518292
374,3.7399999999999642,0.75717837,-0.6630875,0.030428605,-0.16493362,-0.32146785,0.21899518
375,3.749999999999964,0.75717837,-0.6630875,0.030428605,-0.16493362,-0.32146785,0.21899518
376,3.759999999999964,0.75717837,-0.6630875,0.030428605,-0.16493362,-0.32146785,0.21899518
377,3.7699999999999636,0.7186395,-0.6746125,-0.008354146,-0.13454308,-0.116217114,0.21105394
378,3.7799999999999634,0.7186395,-0.6746125,-0.008354146,-0.13454308,-0.116217114,0.21105394
379,3.789999999999963,0.7250423,-0.68680835,-0.010549396,-0.10781772,-0.08323039,0.19150625
380,3.799999999999963,0.7232129,-0.7068095,-0.011281146,-0.01450805,-0.0571159,0.119729586
381,3.8099999999999627,0.71107805,-0.7058948,-0.016281437,0.02107485,-0.037415497,0.094225965
382,3.8199999999999625,0.7271766,-0.69217455,-0.023598937,0.052534413,0.020158553,0.073303826
383,3.8299999999999623,0.74071395,-0.6779664,-0.020732917,0.054519724,0.100792766,0.06566802
384,3.839999999999962,0.7503486,-0.66863656,-0.014391083,0.047800206,0.15806139,0.09117164
385,3.849999999999962,0.76297134,-0.66753894,-0.008963938,0.049785517,0.19349156,0.12889257
386,3.8599999999999617,0.7780332,-0.676198,-0.0014025208,0.0936151,0.16340645,0.20021108
387,3.8699999999999615,0.78583854,-0.6785762,0.0006707709,0.15149458,0.083383106,0.24862215
388,3.8799999999999613,0.79016805,-0.68095434,0.0065857503,0.21212296,-0.021227567,0.29229903
389,3.889999999999961,0.78724104,-0.6902232,0.010122542,0.25305092,-0.1160644,0.3211624
390,3.899999999999961,0.7723012,-0.7059558,0.0052442085,0.2585487,-0.20387627,0.33368513
391,3.9099999999999606,0.75681245,-0.7269936,0.0034148335,0.19425514,-0.26297748,0.30298916
392,3.9199999999999604,0.73546976,-0.72961575,-0.002134271,0.10186178,-0.301462,0.23777929
393,3.92999999999996,0.72424954,-0.7204079,-0.0052442085,-0.029626964,-0.302531,0.1133155
394,3.93999999999996,0.5838755,-0.6603434,0.005732042,-0.12660182,-0.21181752,0.0096211275
395,3.9499999999999598,0.5543006,-0.6491842,0.030184686,-0.31566462,0.3022256,0.046578474
396,3.9599999999999596,0.5543006,-0.6491842,0.030184686,-0.31566462,0.3022256,0.046578474
397,3.9699999999999593,0.5543006,-0.6491842,0.030184686,-0.31566462,0.3022256,0.046578474
398,3.979999999999959,0.5543006,-0.6491842,0.030184686,-0.3107777,0.5306892,0.17302758
399,3.989999999999959,0.7794357,-0.6667462,0.04969802,-0.18402316,0.47555858,0.33551773
400,3.9999999999999587,0.8191332,-0.67924696,0.0307335,-0.13041973,0.34300083,0.3633121
401,4.009999999999959,0.825414,-0.70900476,0.005854,0.039858956,-0.034208454,0.42821655
402,4.019999999999959,0.8032176,-0.7379089,0.0045124586,0.121256754,-0.15943582,0.5002986
403,4.0299999999999585,0.78968024,-0.76382506,0.0042075627,0.19853121,-0.2003638,0.5448918
404,4.039999999999958,0.77967966,-0.78632635,-0.0039026667,0.2576324,-0.25610524,0.5688683
405,4.049999999999958,0.7826676,-0.7897412,-0.007256521,0.2591596,-0.30482176,0.5751296
406,4.059999999999958,0.7954123,-0.78968024,-0.017379062,0.20693061,-0.3370449,0.5381723
407,4.069999999999958,0.79736364,-0.78108215,-0.072016396,0.03940081,-0.3539964,0.5177083
408,4.079999999999957,0.81815743,-0.778643,-0.10354263,-0.3399465,-0.3811799,0.47219884
409,4.089999999999957,0.83023137,-0.7556538,-0.10707942,-0.4512767,-0.38515055,0.46089783
410,4.099999999999957,0.8294386,-0.7361405,-0.090737,-0.6420194,-0.39263365,0.41691554
411,4.109999999999957,0.80394936,-0.6991262,-0.04908823,-0.79000145,-0.38988474,0.36086863
412,4.119999999999957,0.7693132,-0.67430764,-0.0073175007,-0.82787514,-0.38530326,0.34468073
413,4.129999999999956,0.7204689,-0.64912325,0.03719729,-0.77304995,-0.3556763,0.3462079
414,4.139999999999956,0.6752833,-0.638086,0.065369666,-0.6608035,-0.31948254,0.37980548
415,4.149999999999956,0.5937542,-0.63759816,0.076711796,-0.50808716,-0.3098614,0.43692136
416,4.159999999999956,0.57387495,-0.64845246,0.073723815,-0.12064589,-0.28527406,0.55680364
417,4.1699999999999555,0.55326396,-0.6705879,0.052807957,-0.12064589,-0.28527406,0.55680364
418,4.179999999999955,0.55326396,-0.6705879,0.052807957,0.17302758,-0.20906863,0.517861
419,4.189999999999955,0.5277747,-0.7206518,-0.0009146876,0.17302758,-0.20906863,0.517861
420,4.199999999999955,0.5041148,-0.76967907,-0.045856334,0.2695443,0.06719518,0.40240747
421,4.209999999999955,0.4928946,-0.8063885,-0.074272625,0.2509129,0.25870144,0.40759984
422,4.2199999999999545,0.4928946,-0.8063885,-0.074272625,0.2509129,0.25870144,0.40759984
423,4.229999999999954,0.4928946,-0.8063885,-0.074272625,0.2509129,0.25870144,0.40759984
424,4.239999999999954,0.4928946,-0.8063885,-0.074272625,0.2509129,0.25870144,0.40759984
425,4.249999999999954,0.62448764,-0.92926157,-0.19568215,-0.043218717,0.3633121,0.5129741
426,4.259999999999954,0.6549163,-0.9597511,-0.19598705,-0.16432275,0.24144448,0.4259258
427,4.269999999999953,0.68132025,-1.0078027,-0.1800105,-0.26526824,0.21746802,0.32620203
428,4.279999999999953,0.67388076,-1.0277429,-0.15256988,-0.3911065,0.311694,0.15989397
429,4.289999999999953,0.64192766,-1.0356092,-0.119641125,-0.49205196,0.4549419,0.05222898
430,4.299999999999953,0.5657647,-0.9955459,-0.0834195,-0.61819565,0.65057147,0.00290161
431,4.3099999999999525,0.5105786,-0.9377987,-0.05640573,-0.72250086,0.7648033,0.084910266
432,4.319999999999952,0.45649004,-0.8424882,-0.016220458,-0.7661777,0.77564615,0.2180789
433,4.329999999999952,0.45374596,-0.7746184,0.021464668,-0.7652614,0.67103547,0.408058
434,4.339999999999952,0.5218597,-0.6642461,0.120189935,-0.6444628,0.34269542,0.70371675
435,4.349999999999952,0.5617401,-0.63528097,0.108055085,-0.5928447,0.23701571,0.81581056
436,4.3599999999999515,0.6485744,-0.6211338,0.09262736,-0.5671884,0.15317446,0.9424124
437,4.369999999999951,0.6485744,-0.6211338,0.09262736,-0.5671884,0.15317446,0.9424124
438,4.379999999999951,0.7407749,-0.626439,0.0863465,-0.5340489,0.10705414,0.9807441
439,4.389999999999951,0.8073032,-0.6363176,0.07152857,-0.36880988,0.08827003,0.82650065
440,4.399999999999951,0.83767086,-0.64711094,-0.0006707709,-0.2049453,0.0804815,0.6574437
441,4.40999999999995,0.78516775,-0.670405,-0.036465544,-0.027641652,-0.02855795,0.45723262
442,4.41999999999995,0.6959552,-0.723152,-0.05427146,0.1067487,-0.18051068,0.2959642
443,4.42999999999995,0.6959552,-0.723152,-0.05427146,0.1067487,-0.18051068,0.2959642
444,4.43999999999995,0.5071027,-0.8773073,-0.038172957,0.23716843,-0.3129157,0.15424347
445,4.4499999999999496,0.450819,-0.9594462,-0.016769271,0.52183163,-0.5311473,-0.053603426
446,4.459999999999949,0.3638627,-1.0019487,-0.017135147,0.5529858,-0.61636305,-0.020005837
447,4.469999999999949,0.32739717,-1.0094491,-0.023233064,0.5222898,-0.68600166,0.07315111
448,4.479999999999949,0.32739717,-1.0094491,-0.023233064,0.5222898,-0.68600166,0.07315111
449,4.489999999999949,0.36496034,-0.92999333,-0.07402871,0.36545014,-0.6525568,0.23105977
450,4.4999999999999485,0.37410718,-0.8441346,-0.06573554,0.30008754,-0.54321194,0.16905695
451,4.509999999999948,0.30971318,-0.84498835,-0.061527982,0.2302962,-0.38652498,-0.027794369
452,4.519999999999948,0.30971318,-0.84498835,-0.061527982,0.17638734,-0.29917124,-0.15943582
453,4.529999999999948,0.30879852,-0.9275541,-0.11360419,0.10186178,-0.23396139,-0.2593123
454,4.539999999999948,0.33392194,-0.9274322,-0.1387276,-0.02107485,-0.12492194,-0.32650748
455,4.549999999999947,0.33392194,-0.9274322,-0.1387276,-0.13087788,-0.012217305,-0.34116822
456,4.559999999999947,0.38215643,-0.9018819,-0.15507002,-0.2443461,0.08231409,-0.34590244
457,4.569999999999947,0.40868238,-0.8807221,-0.1419595,-0.28970283,0.09666943,-0.3474296
458,4.579999999999947,0.44734317,-0.83882946,-0.08213894,-0.27565295,-0.0009162979,-0.32986724
459,4.589999999999947,0.44734317,-0.83882946,-0.08213894,-0.23762658,-0.02611449,-0.28924468
460,4.599999999999946,0.48460147,-0.7794967,-0.04006331,-0.19394971,-0.030695979,-0.22403483
461,4.609999999999946,0.5341165,-0.7450435,-0.037075333,-0.12339478,-0.026419923,-0.14294247
462,4.619999999999946,0.58027774,-0.7179687,-0.04085604,-0.056199603,-0.036957346,-0.10445796
463,4.629999999999946,0.6328418,-0.69333315,-0.045978293,0.03359759,-0.0852157,-0.098807454
464,4.6399999999999455,0.6707708,-0.6784542,-0.04481969,0.03359759,-0.0852157,-0.098807454
465,4.649999999999945,0.69607717,-0.67924696,-0.04116094,0.19440787,-0.21975878,-0.19272798
466,4.659999999999945,0.71077317,-0.6928453,-0.038904708,0.24648413,-0.26236662,-0.25213462
467,4.669999999999945,0.71174884,-0.7069315,-0.03286777,0.28878653,-0.29871312,-0.3129157
468,4.679999999999945,0.69034517,-0.7269936,-0.023537958,0.34208453,-0.31444287,-0.38591412
469,4.689999999999944,0.69034517,-0.7269936,-0.023537958,0.34208453,-0.31444287,-0.38591412
470,4.699999999999944,0.6218046,-0.76589835,-0.018903542,0.41462478,-0.32375857,-0.42821655
471,4.709999999999944,0.6218046,-0.76589835,-0.018903542,0.44409904,-0.3407101,-0.42058071
472,4.719999999999944,0.6218046,-0.76589835,-0.018903542,0.44409904,-0.3407101,-0.42058071
473,4.729999999999944,0.5367996,-0.8190721,-0.022501312,0.48334712,-0.37216964,-0.3932445
474,4.739999999999943,0.53009194,-0.82645065,-0.023964813,0.4894558,-0.37323865,-0.38713586
475,4.749999999999943,0.5155179,-0.8358415,-0.02933098,0.5181664,-0.28023443,-0.37995818
476,4.759999999999943,0.50795645,-0.8383416,-0.049332146,0.5311473,-0.21059579,-0.38148534
477,4.769999999999943,0.50472456,-0.83114606,-0.0714066,0.529162,-0.10934488,-0.37934732
478,4.7799999999999425,0.50472456,-0.83114606,-0.0714066,0.50900346,-0.03863723,-0.37614027
479,4.789999999999942,0.50746864,-0.8331583,-0.09963996,0.50900346,-0.03863723,-0.37614027
480,4.799999999999942,0.5173473,-0.84431756,-0.11012838,0.40882155,0.049785517,-0.35262197
481,4.809999999999942,0.5173473,-0.84431756,-0.11012838,0.40882155,0.049785517,-0.35262197
482,4.819999999999942,0.53990954,-0.8666359,-0.10909174,0.32513303,0.110413894,-0.3399465
483,4.8299999999999415,0.5608864,-0.884015,-0.09896919,0.24602598,0.18432859,-0.33475417
484,4.839999999999941,0.5777776,-0.89261305,-0.077260606,0.1572978,0.26313022,-0.33673948
485,4.849999999999941,0.5799119,-0.8735266,-0.06183288,-0.032070424,0.3717115,-0.37140608
486,4.859999999999941,0.56728923,-0.8345609,-0.03664848,-0.09743301,0.4541783,-0.39187005
487,4.869999999999941,0.57228947,-0.8095594,-0.017379062,-0.10552697,0.56031615,-0.39599338
488,4.87999999999994,0.5924126,-0.7777283,-0.0005488125,-0.06994407,0.7131852,-0.39629883
489,4.88999999999994,0.6140602,-0.74540937,0.01097625,-0.0021380284,0.83077675,-0.4111123
490,4.89999999999994,0.62351197,-0.72144455,0.023476979,0.08093964,0.8605564,-0.4289801
491,4.90999999999994,0.65266,-0.7094926,0.028965104,0.13637567,0.83276206,-0.43844852
492,4.9199999999999395,0.65266,-0.7094926,0.028965104,0.13637567,0.83276206,-0.43844852
493,4.929999999999939,0.8621235,-0.7148588,-0.05512517,0.13637567,0.83276206,-0.43844852
494,4.939999999999939,0.8621235,-0.7148588,-0.05512517,0.21777347,0.5190827,-0.73991054
495,4.949999999999939,0.91529727,-0.7154686,-0.05652769,0.041996986,0.38438696,-1.10139
496,4.959999999999939,0.85206187,-0.7352258,-0.012073875,-0.0355829,0.4644103,-1.1414018
497,4.9699999999999385,0.85206187,-0.7352258,-0.012073875,-0.0355829,0.4644103,-1.1414018
498,4.979999999999938,0.78108215,-0.77059376,0.040246252,-0.0022907446,0.5687156,-0.90056807
499,4.989999999999938,0.75931257,-0.7589467,0.06768687,0.04596761,0.43982297,-0.81290895
500,4.999999999999938,0.75412935,-0.7247984,0.07841921,0.12690726,0.22327125,-0.7368562
501,5.009999999999938,0.74394584,-0.696687,0.055552024,0.15409076,0.010995574,-0.7113526
502,5.019999999999937,0.7193103,-0.67924696,0.071162686,0.1881465,-0.13881913,-0.68477994
503,5.029999999999937,0.69004023,-0.6760151,0.07378479,0.21868975,-0.15195273,-0.65026605
504,5.039999999999937,0.70351666,-0.6813812,0.042258564,0.23258694,-0.08597928,-0.61743206
505,5.049999999999937,0.72876203,-0.68766207,0.011403104,0.20754147,-0.009162978,-0.6217081
506,5.0599999999999365,0.74540937,-0.7065656,0.013781292,0.14172074,0.11362094,-0.63361996
507,5.069999999999936,0.7502267,-0.7108951,0.018232772,0.08323039,0.25488353,-0.6382015
508,5.079999999999936,0.75925165,-0.69424784,0.033233646,0.035888333,0.33628133,-0.6241516
509,5.089999999999936,0.75925165,-0.69424784,0.033233646,0.014813482,0.356898,-0.6096435
510,5.099999999999936,0.76102,-0.64729387,0.07799236,-0.028405234,0.35063666,-0.5352707
511,5.1099999999999355,0.7612639,-0.6330857,0.09146875,0.011911872,0.16798794,-0.47800204
512,5.119999999999935,0.7612639,-0.6330857,0.09146875,0.011911872,0.16798794,-0.47800204
513,5.129999999999935,0.7612639,-0.6330857,0.09146875,0.011911872,0.16798794,-0.47800204
514,5.139999999999935,0.75980043,-0.6345492,0.093907915,0.041996986,0.05222898,-0.46273044
515,5.149999999999935,0.77522814,-0.6307075,0.05847902,0.017256944,-0.09682214,-0.4279111
516,5.159999999999934,0.77522814,-0.6307075,0.05847902,0.017256944,-0.09682214,-0.4279111
517,5.169999999999934,0.7680326,-0.6259512,0.04177073,-0.031154128,-0.03726278,-0.40286562
518,5.179999999999934,0.769862,-0.6107673,0.045978293,-0.08445212,0.027183503,-0.36545014
519,5.189999999999934,0.769862,-0.6107673,0.045978293,-0.08445212,0.027183503,-0.36545014
520,5.199999999999934,0.769862,-0.6107673,0.045978293,-0.09132435,0.0346666,-0.25793785
521,5.209999999999933,0.81083995,-0.5850951,0.0787241,-0.062002823,-0.015118915,-0.19150625
522,5.219999999999933,0.78839964,-0.5827779,0.07896802,-0.03863723,-0.0759,-0.12507465
523,5.229999999999933,0.79583913,-0.59588844,0.072870106,-0.033750303,-0.14889841,-0.024281893
524,5.239999999999933,0.7920584,-0.6202801,0.07360186,-0.09514226,-0.22479841,0.09056077
525,5.2499999999999325,0.7901071,-0.6363786,0.082077965,-0.1656972,-0.2948952,0.119729586
526,5.259999999999932,0.78626543,-0.6393056,0.08110229,-0.18646662,-0.32177326,0.12217305
527,5.269999999999932,0.7775454,-0.6369884,0.07561417,-0.23732115,-0.397826,0.119729586
528,5.279999999999932,0.7572393,-0.63522,0.057381395,-0.26358834,-0.46639562,0.10399981
529,5.289999999999932,0.7572393,-0.63522,0.057381395,-0.2687807,-0.5653558,0.079870634
530,5.299999999999931,0.7593736,-0.63863486,0.04036821,-0.24724771,-0.64568454,0.05955936
531,5.309999999999931,0.8004736,-0.6168653,-0.090554066,-0.1693624,-0.71975195,0.037110064
532,5.319999999999931,0.8004736,-0.6168653,-0.090554066,-0.14553864,-0.7648033,0.004428773
533,5.329999999999931,0.755349,-0.6180239,-0.060308397,-0.10949759,-0.6693556,-0.00061086525
534,5.339999999999931,0.7900461,-0.6155847,-0.12238518,0.08750644,-0.085673854,0.105832405
535,5.34999999999993,0.7862044,-0.6183897,-0.07658983,0.08750644,-0.085673854,0.105832405
536,5.35999999999993,0.7862044,-0.6183897,-0.07658983,0.1600467,0.30543262,0.18784106
537,5.36999999999993,0.7868142,-0.6241218,-0.03506302,0.1600467,0.30543262,0.18784106
538,5.37999999999993,0.7876069,-0.64967203,0.052015226,0.17852537,0.2507602,0.24327709
539,5.3899999999999295,0.7876069,-0.64967203,0.052015226,0.17852537,0.2507602,0.24327709
540,5.399999999999929,0.772606,-0.6535137,0.08695629,0.12583824,-0.087659165,0.25167647
541,5.409999999999929,0.76748383,-0.6304636,0.00085370836,0.005497787,-0.33505958,0.2078469
542,5.419999999999929,0.7206518,-0.62326807,0.049515083,-0.08002335,-0.3539964,0.19150625
543,5.429999999999929,0.71943223,-0.6340614,0.033111688,-0.113162786,-0.18203785,0.20647246
544,5.4399999999999284,0.76797163,-0.6408301,-0.039941356,-0.18753563,-0.08735373,0.20937407
545,5.449999999999928,0.772606,-0.6436351,-0.014513042,-0.20631973,-0.0154243475,0.19914207
546,5.459999999999928,0.7701669,-0.6431473,-0.016464375,-0.17959438,-0.0030543262,0.21762075
547,5.469999999999928,0.7710206,-0.6402203,-0.005305188,-0.1244638,-0.03191771,0.26083946
548,5.479999999999928,0.77492326,-0.6372323,-0.0033538544,-0.038789943,-0.07651087,0.3129157
549,5.489999999999927,0.7793747,-0.6460133,-0.008537084,0.08399397,-0.14996742,0.3727805
550,5.499999999999927,0.77766734,-0.6782103,-0.014513042,0.18219055,-0.21777347,0.41401392
551,5.509999999999927,0.77766734,-0.6782103,-0.014513042,0.24129178,-0.25152376,0.43050727
552,5.519999999999927,0.7558368,-0.69150376,-0.014574022,0.2843578,-0.2658791,0.41370848
553,5.5299999999999265,0.73717713,-0.69266236,-0.04835648,0.24312437,-0.26145032,0.32528573
554,5.539999999999926,0.7118708,-0.69174767,-0.004756375,0.24312437,-0.26145032,0.32528573
555,5.549999999999926,0.7118708,-0.69174767,-0.004756375,0.15057829,-0.13881913,0.27779096
556,5.559999999999926,0.70857793,-0.71223664,-0.0060369377,0.024587326,0.15943582,0.28298333
557,5.569999999999926,0.7440678,-0.71827364,0.00951275,-0.08093964,0.18203785,0.28710666
558,5.5799999999999255,0.7440678,-0.71827364,0.00951275,-0.08093964,0.18203785,0.28710666
559,5.589999999999925,0.755166,-0.72254217,0.024818521,-0.19501872,0.053145275,0.26007587
560,5.599999999999925,0.75711733,-0.7264448,0.023903834,-0.22861631,-0.033750303,0.25778514
561,5.609999999999925,0.75711733,-0.7264448,0.023903834,-0.22861631,-0.033750303,0.25778514
562,5.619999999999925,0.7626055,-0.688028,-0.009207855,-0.2658791,-0.15974127,0.30207285
563,5.629999999999924,0.7542513,-0.6646729,-0.015854584,-0.2843578,-0.18784106,0.3474296
564,5.639999999999924,0.7501657,-0.6369274,-0.018720604,-0.28115073,-0.15958855,0.4120286
565,5.649999999999924,0.7469338,-0.6243657,-0.042258564,-0.269697,-0.124005646,0.47815478
566,5.659999999999924,0.7558368,-0.6199752,-0.05933273,-0.269697,-0.124005646,0.47815478
567,5.6699999999999235,0.7826676,-0.6227802,-0.062442668,-0.269697,-0.124005646,0.47815478
568,5.679999999999923,0.80370545,-0.63918364,-0.05469831,-0.18096884,-0.34284812,0.6899723
569,5.689999999999923,0.80462015,-0.67613703,-0.031343292,-0.21838433,-0.26740626,0.68691796
570,5.699999999999923,0.80462015,-0.67613703,-0.031343292,-0.1217149,-0.3924809,0.6647741
571,5.709999999999923,0.7798626,-0.68699133,-0.03000175,-0.089491755,-0.40958515,0.61743206
572,5.7199999999999225,0.7335794,-0.68924755,-0.035306938,-0.09682214,-0.34987307,0.54367006
573,5.729999999999922,0.7335794,-0.68924755,-0.035306938,-0.09682214,-0.34987307,0.54367006
574,5.739999999999922,0.68449116,-0.70809007,-0.03603869,-0.13423763,-0.26465738,0.54061574
575,5.749999999999922,0.6748565,-0.73345745,-0.030489584,-0.12675454,0.030848695,0.5529858
576,5.759999999999922,0.66863656,-0.7466899,-0.03670946,-0.08109236,0.15683965,0.55756724
577,5.769999999999921,0.6394885,-0.7449825,-0.050185855,-0.054367006,0.16920967,0.5589417
578,5.779999999999921,0.66522175,-0.78333837,-0.06305246,-0.06093381,0.070249505,0.56306505
579,5.789999999999921,0.6594897,-0.8004736,-0.067321,-0.08933904,-0.051923547,0.54504454
580,5.799999999999921,0.6493062,-0.80779105,-0.066345334,-0.13255776,-0.15607607,0.5305365
581,5.809999999999921,0.62826836,-0.804986,-0.06317442,-0.13255776,-0.15607607,0.5305365
582,5.81999999999992,0.60143757,-0.79394877,-0.06360127,-0.12965615,-0.0010690142,0.47968194
583,5.82999999999992,0.5980837,-0.79400975,-0.07189444,-0.102319926,0.11866058,0.45372015
584,5.83999999999992,0.5864976,-0.79559517,-0.08323657,-0.069485925,0.20295998,0.3923282
585,5.84999999999992,0.5769849,-0.81419384,-0.09476163,-0.06307184,0.2078469,0.3287982
586,5.8599999999999195,0.5617401,-0.848952,-0.107628234,-0.089186326,0.16966783,0.25411993
587,5.869999999999919,0.54326344,-0.91487044,-0.122629106,-0.26099217,0.105068825,0.16646078
588,5.879999999999919,0.54326344,-0.91487044,-0.122629106,-0.26099217,0.105068825,0.16646078
589,5.889999999999919,0.53838503,-0.93340814,-0.112689495,-0.46502116,0.27962357,0.27214047
590,5.899999999999919,0.56021565,-0.9137729,-0.115128666,-0.5128214,0.38683042,0.3436117
591,5.909999999999918,0.56021565,-0.9137729,-0.115128666,-0.5128214,0.473726,0.44104472
592,5.919999999999918,0.61515784,-0.8740144,-0.12580003,-0.48365256,0.42394048,0.5331327
593,5.929999999999918,0.6930283,-0.79016805,-0.10951859,-0.45738536,0.3107777,0.6059783
594,5.939999999999918,0.7031508,-0.74949497,-0.07335794,-0.42149702,0.19517145,0.6751588
595,5.949999999999918,0.6982724,-0.71077317,0.0035977708,-0.31474832,0.12385293,0.7495316
596,5.959999999999917,0.67522234,-0.6854668,0.04744179,-0.31474832,0.12385293,0.7495316
597,5.969999999999917,0.6490013,-0.655831,0.06872352,-0.1160644,0.21670444,0.78954333
598,5.979999999999917,0.6219875,-0.62381685,0.07049192,-0.023365596,0.2490803,0.81581056
599,5.989999999999917,0.6084501,-0.61125517,0.052625023,0.027183503,0.18845193,0.8445212
600,5.9999999999999165,0.6208899,-0.620524,0.03292875,0.06383542,0.028863383,0.8526152
601,6.009999999999916,0.65729445,-0.6641851,0.024574606,0.08857546,-0.113926366,0.8045095
602,6.019999999999916,0.6801007,-0.7249813,0.023598937,0.12675454,-0.30085114,0.5890268
603,6.029999999999916,0.65394056,-0.7607151,0.025733208,0.14095716,-0.33628133,0.50594914
604,6.039999999999916,0.6442449,-0.85041547,0.028660208,0.20189096,-0.3510948,0.16508633
605,6.0499999999999154,0.48136955,-0.960178,0.000121958336,0.25335637,-0.3303254,-0.07070765
606,6.059999999999915,0.37581462,-1.0092052,-0.040307228,0.28710666,-0.3463606,-0.3640757
607,6.069999999999915,0.37581462,-1.0092052,-0.040307228,0.28710666,-0.3463606,-0.3640757
608,6.079999999999915,0.29977357,-1.0473173,-0.06835765,0.24327709,-0.3943135,-0.3555236
609,6.089999999999915,0.17464434,-1.0025585,-0.15885073,0.07086037,-0.34238997,-0.053450707
610,6.099999999999914,0.17464434,-1.0025585,-0.15885073,0.07086037,-0.34238997,-0.053450707
611,6.109999999999914,0.24123359,-0.813706,-0.2034265,-0.07544186,-0.29535335,0.1779145
612,6.119999999999914,0.29532212,-0.7650446,-0.17909582,-0.07544186,-0.29535335,0.1779145
613,6.129999999999914,0.39538893,-0.73254275,-0.11708001,-0.1207986,-0.2883284,0.17501289
614,6.1399999999999135,0.39538893,-0.73254275,-0.11708001,-0.1207986,-0.2883284,0.17501289
615,6.149999999999913,0.39538893,-0.73254275,-0.11708001,-0.1207986,-0.2883284,0.17501289
616,6.159999999999913,0.39538893,-0.73254275,-0.11708001,-0.1638646,-0.18020524,0.07162395
617,6.169999999999913,0.5536299,-0.78791183,-0.06658925,0.034055736,0.051159963,-0.34284812
618,6.179999999999913,0.5391778,-0.7943756,-0.07689473,0.034055736,0.051159963,-0.34284812
619,6.1899999999999125,0.52112794,-0.7998637,-0.07165052,0.13988814,-0.120493166,-0.41981715
620,6.199999999999912,0.51222503,-0.7954732,-0.062015813,0.15470162,-0.15806139,-0.39752057
621,6.209999999999912,0.50624907,-0.78772885,-0.055369087,0.16798794,-0.15790866,-0.3472769
622,6.219999999999912,0.51448125,-0.78083825,-0.05292992,0.16798794,-0.15790866,-0.3472769
623,6.229999999999912,0.5392388,-0.7748013,-0.047380816,0.17119499,-0.14813483,-0.30573806
624,6.239999999999911,0.55576414,-0.7732159,-0.04530752,0.16264287,-0.17379116,-0.2762638
625,6.249999999999911,0.56594765,-0.76730084,-0.042319544,0.16508633,-0.16157386,-0.28970283
626,6.259999999999911,0.57088697,-0.76632524,-0.04524654,0.16630806,-0.14202617,-0.2947425
627,6.269999999999911,0.5757653,-0.76632524,-0.05055173,0.16355917,-0.121256754,-0.2910773
628,6.2799999999999105,0.5871074,-0.77455735,-0.056161813,0.160963,-0.10781772,-0.27412578
629,6.28999999999991,0.5880831,-0.77699655,-0.056161813,0.16584991,-0.11759156,-0.26908615
630,6.29999999999991,0.5987544,-0.7871191,-0.044209898,0.22418754,-0.2209805,-0.25610524
631,6.30999999999991,0.5987544,-0.7871191,-0.044209898,0.22418754,-0.2209805,-0.25610524
632,6.31999999999991,0.5987544,-0.7871191,-0.044209898,0.22418754,-0.2209805,-0.25610524
633,6.3299999999999095,0.59722996,-0.78516775,-0.04036821,0.399964,-0.26389378,-0.3013093
634,6.339999999999909,0.59582746,-0.7890704,-0.04469773,0.399964,-0.26389378,-0.3013093
635,6.349999999999909,0.5783874,-0.79309505,-0.05408852,0.45005497,-0.20754147,-0.3623958
636,6.359999999999909,0.5642402,-0.7965709,-0.05079565,0.45005497,-0.20754147,-0.3623958
637,6.369999999999909,0.54192185,-0.8011443,-0.0582351,0.46670106,-0.08170322,-0.4166101
638,6.379999999999908,0.535641,-0.805047,-0.056771606,0.45646906,-0.02443461,-0.42302418
639,6.389999999999908,0.52015233,-0.81687695,-0.061710916,0.41263947,0.09972375,-0.41890085
640,6.399999999999908,0.5108225,-0.81596226,-0.05689356,0.36636642,0.20815234,-0.40011674
641,6.409999999999908,0.50978583,-0.8188282,-0.049576063,0.33505958,0.2751948,-0.377362
642,6.419999999999908,0.5213719,-0.81730384,-0.03731925,0.31230485,0.33001995,-0.34223726
643,6.429999999999907,0.5271649,-0.81773067,-0.033355605,0.30589077,0.36285394,-0.32650748
644,6.439999999999907,0.5494833,-0.81608415,-0.025367333,0.30680707,0.39950588,-0.3315471
645,6.449999999999907,0.59247357,-0.8197429,-0.031709168,0.2958115,0.42012256,-0.36468655
646,6.459999999999907,0.75589776,-0.8690751,-0.06500379,0.15867224,0.41050145,-0.5477934
647,6.4699999999999065,0.75589776,-0.8690751,-0.06500379,0.15867224,0.41050145,-0.5477934
648,6.479999999999906,0.8433418,-0.8831613,-0.073723815,-0.08750644,0.39522982,-0.7414377
649,6.489999999999906,0.8433418,-0.8831613,-0.073723815,-0.1853976,0.4286747,-0.81306165
650,6.499999999999906,0.8577939,-0.8606599,-0.07238227,-0.29184088,0.48517972,-0.90087354
651,6.509999999999906,0.78968024,-0.7908998,-0.07634591,-0.29184088,0.48517972,-0.90087354
652,6.519999999999905,0.72522527,-0.7385797,-0.046466127,-0.30466905,0.5335908,-1.0833695
653,6.529999999999905,0.67381984,-0.7115659,-0.038538832,-0.19425514,0.5148067,-1.0887146
654,6.539999999999905,0.64528155,-0.68589365,-0.02695279,-0.10094548,0.47510046,-1.061073
655,6.549999999999905,0.6369884,-0.6507697,-0.002134271,-0.005497787,0.4184427,-0.9807441
656,6.559999999999905,0.65930676,-0.6330857,-0.0006707709,0.033750303,0.35537085,-0.89949906
657,6.569999999999904,0.7069315,-0.63174415,0.014878917,0.034972034,0.30543262,-0.8454375
658,6.579999999999904,0.8075471,-0.6637582,0.020732917,-0.015118915,0.25396723,-0.8063421
659,6.589999999999904,0.8865761,-0.6758321,0.06158896,-0.09483683,0.15821409,-0.8579602
660,6.599999999999904,0.8889543,-0.720042,0.09287128,-0.09911288,0.16279559,-0.9851729
661,6.6099999999999035,0.7912047,-0.7462021,0.037624147,-0.11301007,0.076052725,-1.0068586
662,6.619999999999903,0.7912047,-0.7462021,0.037624147,-0.11301007,0.076052725,-1.0068586
663,6.629999999999903,0.7912047,-0.7462021,0.037624147,-0.11301007,0.076052725,-1.0068586
664,6.639999999999903,0.661441,-0.69016224,-0.03305071,-0.04016439,-0.04550946,-0.93126404
665,6.649999999999903,0.68284476,-0.6730271,-0.037929043,0.0015271631,0.05375614,-0.86422163
666,6.659999999999902,0.72010297,-0.6679658,-0.061527982,0.030390546,0.19333886,-0.76067996
667,6.669999999999902,0.7977904,-0.65235513,-0.04481969,-0.06918049,0.36636642,-0.5025894
668,6.679999999999902,0.7977904,-0.65235513,-0.04481969,-0.06918049,0.36636642,-0.5025894
669,6.689999999999902,0.81388897,-0.6384519,-0.005366167,-0.06918049,0.36636642,-0.5025894
670,6.699999999999902,0.8325486,-0.6124138,0.018842563,-0.122478485,0.39904773,-0.42714754
671,6.709999999999901,0.8313289,-0.5572277,0.060552314,-0.1704314,0.27214047,-0.24587326
672,6.719999999999901,0.8313289,-0.5572277,0.060552314,-0.15149458,0.17592919,-0.21609358
673,6.729999999999901,0.8065714,-0.5305188,0.080919355,-0.12018774,0.06872234,-0.18234327
674,6.739999999999901,0.81419384,-0.5046026,0.08409027,-0.07544186,-0.043218717,-0.15470162
675,6.7499999999999005,0.8274264,-0.49484593,0.07000408,-0.023518313,-0.11377365,-0.14920384
676,6.7599999999999,0.8505375,-0.4923458,0.048722353,0.01740966,-0.15989397,-0.1695151
677,6.7699999999999,0.80693734,-0.5336897,-0.00042685418,0.05390886,-0.2658791,-0.18600847
678,6.7799999999999,0.78315544,-0.5752165,0.011586042,0.05390886,-0.2658791,-0.18600847
679,6.7899999999999,0.77699655,-0.5952786,0.006890646,0.118507855,-0.2958115,-0.087659165
680,6.7999999999998995,0.799132,-0.6073525,-0.010793312,0.122783914,-0.2396119,-0.06582073
681,6.809999999999899,0.8134621,-0.6258292,-0.015793605,0.069485925,-0.15332718,-0.0664316
682,6.819999999999899,0.8134621,-0.6258292,-0.015793605,0.069485925,-0.15332718,-0.0664316
683,6.829999999999899,0.82010883,-0.6325369,0.006768687,-0.1600467,0.023518313,-0.020922136
684,6.839999999999899,0.80712026,-0.6091819,0.025367333,-0.1600467,0.023518313,-0.020922136
685,6.849999999999898,0.79516834,-0.58631474,0.03225798,-0.16218472,-0.027641652,0.0061086523
686,6.859999999999898,0.79718065,-0.58094853,0.022989146,-0.12858713,-0.12140947,0.029932396
687,6.869999999999898,0.80419326,-0.58631474,0.007073583,-0.038331795,-0.27091873,0.08506299
688,6.879999999999898,0.8059007,-0.600035,-0.006890646,0.05497787,-0.35078937,0.16050485
689,6.8899999999998975,0.8012053,-0.6074135,-0.020976834,0.05497787,-0.35078937,0.16050485
690,6.899999999999897,0.8012053,-0.6074135,-0.020976834,0.058184914,-0.32620203,0.18616119
691,6.909999999999897,0.7954123,-0.61131614,-0.022928167,0.061239243,-0.23472497,0.19318613
692,6.919999999999897,0.78766793,-0.61576766,-0.025916148,0.061239243,-0.23472497,0.19318613
693,6.929999999999897,0.7750452,-0.6265609,-0.02494048,0.061239243,-0.23472497,0.19318613
694,6.9399999999998965,0.78157,-0.6518673,-0.02695279,0.15271631,-0.15118915,0.15057829
695,6.949999999999896,0.79175353,-0.6513185,-0.025916148,0.14874569,-0.11942416,0.1553125
696,6.959999999999896,0.79602206,-0.63765913,-0.021647604,0.12140947,-0.065973446,0.160963
697,6.969999999999896,0.7880338,-0.61918247,-0.015122834,0.071776666,0.0021380284,0.17394388
698,6.979999999999896,0.7801065,-0.61625546,-0.0035367915,0.02977968,0.03848451,0.18325958
699,6.989999999999895,0.78108215,-0.62302417,0.002866021,0.013897184,0.021380283,0.18570304
700,6.999999999999895,0.78449696,-0.6356468,0.011342125,0.016798794,-0.022602014,0.18219055
701,7.009999999999895,0.78157,-0.63765913,0.013293459,0.027030786,-0.08353582,0.17394388
702,7.019999999999895,0.7766917,-0.6405862,0.011342125,0.03634648,-0.15928312,0.15592335
703,7.0299999999998946,0.7651056,-0.6421716,0.0048783333,0.034208454,-0.19715676,0.14019357
704,7.039999999999894,0.7535196,-0.6383909,-0.009878625,0.002443461,-0.18875736,0.12034045
705,7.049999999999894,0.75553185,-0.63058555,-0.021159772,-0.10751228,-0.054061573,0.10934488
706,7.059999999999894,0.7677887,-0.62808543,-0.02695279,-0.10751228,-0.054061573,0.10934488
707,7.069999999999894,0.7920584,-0.6279025,-0.017927876,-0.15485434,0.017715093,0.15775596
708,7.0799999999998935,0.78864354,-0.6274756,-0.02134271,-0.09117164,-0.02443461,0.19868392
709,7.089999999999893,0.7852897,-0.62942696,-0.027196707,-0.0076358155,-0.07391469,0.22876903
710,7.099999999999893,0.7852897,-0.62942696,-0.027196707,-0.0076358155,-0.07391469,0.22876903
711,7.109999999999893,0.7852897,-0.62942696,-0.027196707,-0.0076358155,-0.07391469,0.22876903
712,7.119999999999893,0.7852897,-0.62942696,-0.027196707,-0.0076358155,-0.07391469,0.22876903
713,7.129999999999892,0.75589776,-0.64869636,-0.046283185,0.17363845,0.060322944,0.27091873
714,7.139999999999892,0.7488242,-0.640891,-0.02695279,0.17363845,0.060322944,0.27091873
715,7.149999999999892,0.7578491,-0.6363786,-0.007927292,0.028710667,0.24495697,0.30100384
716,7.159999999999892,0.7578491,-0.6363786,-0.007927292,0.028710667,0.24495697,0.30100384
717,7.169999999999892,0.77516717,-0.6420496,0.021586625,-0.08155051,0.20769419,0.3494149
718,7.179999999999891,0.78199685,-0.646867,0.026586918,-0.08155051,0.20769419,0.3494149
719,7.189999999999891,0.78492385,-0.6555871,0.025733208,-0.039553523,-0.0627664,0.4437936
720,7.199999999999891,0.79632694,-0.66430706,0.014756958,-0.0022907446,-0.17486018,0.49220467
721,7.209999999999891,0.79102176,-0.6601605,-0.043356188,0.02855795,-0.23075435,0.528093
722,7.2199999999998905,0.77175236,-0.65644073,-0.06646729,0.04886922,-0.18417588,0.55863625
723,7.22999999999989,0.77175236,-0.65644073,-0.06646729,0.036651913,-0.04627304,0.5702427
724,7.23999999999989,0.7570564,-0.6502209,-0.066223375,0.0027488936,0.058490347,0.591623
725,7.24999999999989,0.7570564,-0.6502209,-0.066223375,-0.031154128,0.13897185,0.61926466
726,7.25999999999989,0.76364213,-0.6675999,-0.032318957,-0.08445212,0.07880162,0.6056729
727,7.269999999999889,0.75669044,-0.6715026,-0.012378771,-0.10048734,-0.06658431,0.5878051
728,7.279999999999889,0.75669044,-0.6715026,-0.012378771,-0.10048734,-0.06658431,0.5878051
729,7.289999999999889,0.7382138,-0.7134563,0.0069516255,-0.09514226,-0.26190847,0.55924714
730,7.299999999999889,0.7382138,-0.7134563,0.0069516255,-0.09514226,-0.26190847,0.55924714
731,7.309999999999889,0.72668874,-0.7349819,0.00079272914,-0.1085813,-0.27183503,0.5665775
732,7.319999999999888,0.72668874,-0.7349819,0.00079272914,-0.12721269,-0.23777929,0.5748242
733,7.329999999999888,0.7387626,-0.7579101,-0.02414775,-0.19868392,-0.20647246,0.59391373
734,7.339999999999888,0.7285791,-0.74047005,-0.03811198,-0.25137106,-0.1994475,0.5946773
735,7.349999999999888,0.74772656,-0.74138474,-0.05256404,-0.29550606,-0.18020524,0.5858198
736,7.3599999999998875,0.73839676,-0.72778636,-0.051344458,-0.30650163,-0.1740966,0.5697846
737,7.369999999999887,0.7241276,-0.70790714,-0.05512517,-0.28710666,-0.14844026,0.5697846
738,7.379999999999887,0.69241846,-0.69010127,-0.059088815,-0.21426098,-0.09911288,0.6177375
739,7.389999999999887,0.6855888,-0.6896134,-0.06256463,-0.1740966,-0.102319926,0.6609562
740,7.399999999999887,0.66955125,-0.6970529,-0.06213777,-0.16539176,-0.14385876,0.6892087
741,7.4099999999998865,0.64558643,-0.6986383,-0.054576356,-0.18707748,-0.20250183,0.6966918
742,7.419999999999886,0.62064594,-0.70071167,-0.04116094,-0.16997325,-0.008399397,0.6800457
743,7.429999999999886,0.58411944,-0.72327393,-0.03146525,-0.16997325,-0.008399397,0.6800457
744,7.439999999999886,0.58411944,-0.72327393,-0.03146525,-0.117438845,0.183565,0.6478226
745,7.449999999999886,0.56454515,-0.79132664,-0.08396832,-0.033750303,0.38530326,0.5215262
746,7.459999999999885,0.5711309,-0.807913,-0.09878625,-0.033750303,0.38530326,0.5215262
747,7.469999999999885,0.5711309,-0.807913,-0.09878625,-0.03848451,0.3828598,0.5056437
748,7.479999999999885,0.58052164,-0.8688312,-0.12378771,-0.21548271,0.37293324,0.41645738
749,7.489999999999885,0.687906,-0.9729836,-0.12677568,-0.29733866,0.39675698,0.33750305
750,7.4999999999998845,0.72077376,-1.0078636,-0.1255561,-0.39354995,0.40210205,0.23411411
751,7.509999999999884,0.6964431,-1.0226207,-0.12122658,-0.505491,0.3950771,0.12705997
752,7.519999999999884,0.6495501,-1.0223768,-0.10951859,-0.6608035,0.4111123,0.056199603
753,7.529999999999884,0.5930834,-0.99292374,-0.08659042,-0.8000808,0.473726,0.11377365
754,7.539999999999884,0.5307627,-0.9263955,-0.03585575,-0.8671232,0.51144695,0.21471913
755,7.5499999999998835,0.48100364,-0.8548669,0.023659917,-0.8848383,0.47616947,0.37507126
756,7.559999999999883,0.4666126,-0.7938878,0.06372323,-0.8678868,0.39950588,0.4905248
757,7.569999999999883,0.4677102,-0.6766858,0.13000758,-0.7583892,0.15409076,0.7466301
758,7.579999999999883,0.4677102,-0.6766858,0.13000758,-0.7583892,0.15409076,0.7466301
759,7.589999999999883,0.4677102,-0.6766858,0.13000758,-0.4007276,-0.07391469,1.0374019
760,7.599999999999882,0.8371221,-0.5944859,-0.011525063,-0.065973446,-0.20250183,0.9408852
761,7.609999999999882,0.8371221,-0.5944859,-0.011525063,-0.065973446,-0.20250183,0.9408852
762,7.619999999999882,0.8093765,-0.6504648,-0.084212236,0.10980303,-0.25320363,0.68645984
763,7.629999999999882,0.7257131,-0.68217397,-0.08226089,0.3744604,-0.19120082,0.19853121
764,7.6399999999998816,0.58168024,-0.7069315,-0.08921252,0.50656,-0.18463401,0.008552114
765,7.649999999999881,0.4727715,-0.7515073,-0.09171267,0.50656,-0.18463401,0.008552114
766,7.659999999999881,0.3430078,-0.82779217,-0.08232188,0.7611381,-0.2687807,-0.25870144
767,7.669999999999881,0.25714916,-0.892674,-0.085309856,0.8071057,-0.34422258,-0.26175576
768,7.679999999999881,0.18787682,-0.9754228,-0.082077965,0.8071057,-0.34422258,-0.26175576
769,7.6899999999998805,0.21934207,-1.0288405,-0.078663126,0.5842926,-0.5401576,0.17440203
770,7.69999999999988,0.31599405,-1.0180472,-0.09829842,0.43096542,-0.49693888,0.3652974
771,7.70999999999988,0.42990315,-0.95603144,-0.117384896,0.24495697,-0.37843102,0.38820487
772,7.71999999999988,0.49868765,-0.8849297,-0.1185435,0.12095132,-0.2499966,0.26083946
773,7.72999999999988,0.47344226,-0.8611478,-0.09232246,0.007330383,-0.10827587,0.032070424
774,7.739999999999879,0.3761805,-0.8884055,-0.053966567,-0.058643065,0.001985312,-0.15363261
775,7.749999999999879,0.35252056,-0.9066383,-0.06372323,-0.08552113,0.05177083,-0.22250767
776,7.759999999999879,0.35398406,-0.92913955,-0.1009815,-0.13103059,0.11484267,-0.2854268
777,7.769999999999879,0.37514386,-0.92663944,-0.12025091,-0.16890424,0.1085813,-0.2770274
778,7.779999999999879,0.4106337,-0.9098702,-0.123055965,-0.20448714,0.071776666,-0.23182335
779,7.789999999999878,0.4672224,-0.86901414,-0.09909115,-0.2228131,0.0033597588,-0.15592335
780,7.799999999999878,0.51387143,-0.82620674,-0.061649937,-0.1956296,-0.056199603,-0.107665
781,7.809999999999878,0.60235226,-0.74595815,0.011342125,-0.11301007,-0.13744467,-0.09590584
782,7.819999999999878,0.623634,-0.7302255,0.019696271,0.06872234,-0.28405234,-0.18096884
783,7.8299999999998775,0.623634,-0.7302255,0.019696271,0.12782355,-0.29718593,-0.23319781
784,7.839999999999877,0.6387568,-0.72235924,0.013903251,0.12782355,-0.29718593,-0.23319781
785,7.849999999999877,0.6404642,-0.7151027,-0.017379062,0.22510384,-0.26984972,-0.35735616
786,7.859999999999877,0.6269878,-0.71961516,-0.034026377,0.24740042,-0.2576324,-0.39278635
787,7.869999999999877,0.6269878,-0.71961516,-0.034026377,0.25473082,-0.2612976,-0.4025602
788,7.879999999999876,0.6113771,-0.7490681,-0.06158896,0.25717425,-0.27091873,-0.3914119
789,7.889999999999876,0.6105234,-0.7671179,-0.06530869,0.25717425,-0.27091873,-0.3914119
790,7.899999999999876,0.61156005,-0.77492326,-0.06518673,0.30741793,-0.30482176,-0.3359759
791,7.909999999999876,0.60466945,-0.77589893,-0.060369372,0.36270124,-0.34468073,-0.30604348
792,7.919999999999876,0.59979105,-0.77791125,-0.05793021,0.41798455,-0.39675698,-0.27977628
793,7.929999999999875,0.5978397,-0.7783381,-0.053112853,0.45005497,-0.43066,-0.26847526
794,7.939999999999875,0.59198576,-0.7818139,-0.053112853,0.45998153,-0.45142943,-0.26099217
795,7.949999999999875,0.5866806,-0.7882167,-0.056039855,0.44394633,-0.44898596,-0.2452624
796,7.959999999999875,0.5861928,-0.7944976,-0.053966567,0.41798455,-0.41981715,-0.23441954
797,7.9699999999998745,0.5862537,-0.81010824,-0.045978293,0.38072178,-0.37614027,-0.22388211
798,7.979999999999874,0.5862537,-0.81010824,-0.045978293,0.38072178,-0.37614027,-0.22388211
799,7.989999999999874,0.58265597,-0.819316,-0.026403978,0.3462079,-0.31658092,-0.25610524
800,7.999999999999874,0.5684478,-0.8169379,-0.017318083,0.35353827,-0.28603765,-0.30390546
801,8.009999999999874,0.52106696,-0.80602264,-0.014513042,0.35231653,-0.2191479,-0.36667186
802,8.019999999999873,0.50210243,-0.8002906,-0.021647604,0.34437528,-0.15317446,-0.3743077
803,8.029999999999873,0.50210243,-0.8002906,-0.021647604,0.33505958,-0.048258353,-0.36743546
804,8.039999999999873,0.47496673,-0.79760754,-0.03750219,0.3200934,0.122478485,-0.33765575
805,8.049999999999873,0.47496673,-0.79760754,-0.03750219,0.31016684,0.26648995,-0.31138855
806,8.059999999999873,0.5100298,-0.81504756,-0.07250423,0.31016684,0.26648995,-0.31138855
807,8.069999999999872,0.5100298,-0.81504756,-0.07250423,0.31016684,0.26648995,-0.31138855
808,8.079999999999872,0.5813144,-0.83815867,-0.124641426,0.21319197,0.4989242,-0.36682457
809,8.089999999999872,0.6327808,-0.84279305,-0.15135029,0.15607607,0.48991394,-0.42943826
810,8.099999999999872,0.67930794,-0.8455371,-0.17379062,0.0759,0.462425,-0.5119051
811,8.109999999999872,0.7418116,-0.8582818,-0.17153439,-0.025045475,0.45433104,-0.63117653
812,8.119999999999871,0.778704,-0.86773354,-0.1525089,-0.08597928,0.5001459,-0.733191
813,8.129999999999871,0.7782161,-0.8539522,-0.11372615,-0.124005646,0.59131753,-0.84879726
814,8.139999999999871,0.7519341,-0.8340121,-0.08110229,-0.12644911,0.64858615,-0.9078985
815,8.14999999999987,0.72370076,-0.80535185,-0.048112564,-0.100792766,0.676686,-0.9445504
816,8.15999999999987,0.68839383,-0.75717837,-0.008598062,-0.03924809,0.674548,-0.9807441
817,8.16999999999987,0.6799787,-0.74797046,-0.0019513334,-0.027030786,0.66859204,-0.98563105
818,8.17999999999987,0.6799787,-0.74797046,-0.0019513334,-0.027030786,0.66859204,-0.98563105
819,8.18999999999987,0.6420496,-0.6613191,0.040429186,0.0421497,0.52763486,-0.88789266
820,8.19999999999987,0.6789421,-0.6513185,0.049454104,0.016646078,0.47250426,-0.84742284
821,8.20999999999987,0.82096255,-0.67272216,0.08963938,-0.07803804,0.36819902,-0.8697194
822,8.21999999999987,0.82096255,-0.67272216,0.08963938,-0.07803804,0.36819902,-0.8697194
823,8.229999999999869,0.9231027,-0.6974797,0.08122425,-0.076358154,0.3996586,-0.99204516
824,8.239999999999869,0.8615137,-0.7384577,0.023598937,-0.09086621,0.31764993,-1.1117748
825,8.249999999999869,0.78315544,-0.75504404,0.017683959,-0.08399397,0.1956296,-1.0891727
826,8.259999999999868,0.7401042,-0.6798567,-0.011464084,0.06001751,0.1479821,-0.9401216
827,8.269999999999868,0.73120123,-0.6531479,-0.011890938,0.12018774,0.20952678,-0.840856
828,8.279999999999868,0.75345856,-0.6412569,0.000365875,0.1385137,0.27091873,-0.6881397
829,8.289999999999868,0.7824847,-0.63759816,0.016708292,0.13530666,0.29184088,-0.59880066
830,8.299999999999867,0.81480366,-0.62753665,0.04762473,0.14446963,0.29443705,-0.49846604
831,8.309999999999867,0.81480366,-0.62753665,0.04762473,0.14446963,0.29443705,-0.49846604
832,8.319999999999867,0.81480366,-0.62753665,0.04762473,0.1470658,0.25793785,-0.47876564
833,8.329999999999867,0.7649227,-0.63119537,0.066650234,0.14049901,0.08460484,-0.39370266
834,8.339999999999867,0.755227,-0.6275976,0.006097917,0.14049901,0.08460484,-0.39370266
835,8.349999999999866,0.7443727,-0.61088926,0.058905877,0.04596761,-0.039095376,-0.37659842
836,8.359999999999866,0.76937413,-0.5950957,0.08573671,0.03970624,0.12675454,-0.36636642
837,8.369999999999866,0.8081569,-0.58521706,0.053844605,-0.003970624,0.2180789,-0.36209038
838,8.379999999999866,0.83096313,-0.5689966,0.051466417,-0.08750644,0.2602286,-0.35796702
839,8.389999999999866,0.81748676,-0.5684478,0.08299265,-0.14126259,0.19776763,-0.32375857
840,8.399999999999865,0.81748676,-0.5684478,0.08299265,-0.14126259,0.19776763,-0.32375857
841,8.409999999999865,0.7944976,-0.58119243,0.099457026,-0.13087788,0.06612616,-0.24113905
842,8.419999999999865,0.8043152,-0.5889368,0.100127794,-0.049480084,-0.23716843,-0.13545936
843,8.429999999999865,0.790351,-0.58521706,0.079516836,-0.008399397,-0.36132678,-0.10277808
844,8.439999999999864,0.790351,-0.58521706,0.079516836,-0.008399397,-0.36132678,-0.10277808
845,8.449999999999864,0.7806553,-0.59613234,0.029818814,0.039858956,-0.4549419,-0.061850104
846,8.459999999999864,0.7893143,-0.6190605,0.0048783333,0.02107485,-0.39767328,-0.057268616
847,8.469999999999864,0.7893143,-0.6190605,0.0048783333,0.02107485,-0.39767328,-0.057268616
848,8.479999999999864,0.8094985,-0.6404032,-0.0010366458,-0.03863723,-0.28206703,-0.049480084
849,8.489999999999863,0.8245603,-0.6490623,0.010427438,-0.09193522,-0.19700404,-0.051465396
850,8.499999999999863,0.7879728,-0.60631585,0.034880083,-0.1731803,-0.12675454,-0.07422013
851,8.509999999999863,0.778643,-0.5980837,0.035672814,-0.17058411,-0.14630222,-0.07666359
852,8.519999999999863,0.7791308,-0.5893027,0.033111688,-0.16050485,-0.18280143,-0.07391469
853,8.529999999999863,0.79535127,-0.59460783,0.023111105,-0.14446963,-0.22174409,-0.057726767
854,8.539999999999862,0.79535127,-0.59460783,0.023111105,-0.14446963,-0.22174409,-0.057726767
855,8.549999999999862,0.79535127,-0.59460783,0.023111105,-0.14446963,-0.22174409,-0.057726767
856,8.559999999999862,0.80669343,-0.5994252,0.0140252095,-0.1693624,-0.22785273,0.012980887
857,8.569999999999862,0.81053513,-0.60674274,0.0190255,-0.17547104,-0.2510656,0.043676864
858,8.579999999999862,0.81102294,-0.61692625,0.02695279,-0.16401732,-0.3119994,0.058643065
859,8.589999999999861,0.8047421,-0.6223534,0.023537958,-0.14385876,-0.3827071,0.05177083
860,8.599999999999861,0.7674228,-0.61338943,-0.00079272914,-0.11255192,-0.45937067,0.03023783
861,8.60999999999986,0.7674228,-0.61338943,-0.00079272914,-0.07009678,-0.52503866,-0.008399397
862,8.61999999999986,0.7741305,-0.5900954,-0.0512225,-0.054061573,-0.5213735,-0.03023783
863,8.62999999999986,0.7741305,-0.5900954,-0.0512225,-0.12675454,-0.32528573,-0.019394971
864,8.63999999999986,0.8156574,-0.59765685,-0.057015523,-0.12675454,-0.32528573,-0.019394971
865,8.64999999999986,0.81413287,-0.60595,-0.045734376,-0.21960606,-0.08170322,0.042760566
866,8.65999999999986,0.8110839,-0.60546213,-0.03652652,-0.1966986,-0.05589417,0.06719518
867,8.66999999999986,0.8038274,-0.60308397,-0.041953668,-0.11575896,-0.08582657,0.08368854
868,8.67999999999986,0.7891924,-0.5944249,-0.045185562,-0.021227567,-0.12186762,0.0954477
869,8.68999999999986,0.77455735,-0.5862537,-0.052198168,0.07819075,-0.14202617,0.10598512
870,8.699999999999859,0.7780942,-0.5789362,-0.06591848,0.17821993,-0.11804971,0.13591751
871,8.709999999999859,0.7949854,-0.58722943,-0.09244442,0.22204952,-0.087201014,0.14462234
872,8.719999999999859,0.78876555,-0.6104625,-0.040551145,0.21960606,-0.077579886,0.14080444
873,8.729999999999858,0.7866313,-0.6327808,-0.010610376,0.21533,-0.007941248,0.14172074
874,8.739999999999858,0.8029127,-0.6541845,-0.015061854,0.18799378,0.032070424,0.14752395
875,8.749999999999858,0.8143768,-0.6472329,0.000121958336,0.12217305,0.004886922,0.14110987
876,8.759999999999858,0.7996198,-0.62826836,0.005549104,0.039095376,-0.018936822,0.13942999
877,8.769999999999857,0.7898022,-0.6156457,0.0043295207,-0.040317107,-0.05467244,0.15134187
878,8.779999999999857,0.772789,-0.6046084,-0.009146876,-0.08811731,-0.07452556,0.16218472
879,8.789999999999857,0.7690083,-0.6017424,-0.019452354,-0.11010846,-0.08323039,0.1742493
880,8.799999999999857,0.7807163,-0.59729093,-0.026221042,-0.13118331,-0.085673854,0.21090123
881,8.809999999999857,0.7968148,-0.59771776,-0.026525937,-0.17592919,-0.083383106,0.321926
882,8.819999999999856,0.80370545,-0.6127797,-0.024330689,-0.18219055,-0.10170906,0.37705657
883,8.829999999999856,0.80370545,-0.6127797,-0.024330689,-0.18219055,-0.10170906,0.37705657
884,8.839999999999856,0.80401033,-0.6347321,-0.039148625,-0.11591168,-0.19501872,0.47815478
885,8.849999999999856,0.80425423,-0.6455255,-0.05847902,-0.043676864,-0.22632557,0.5093089
886,8.859999999999856,0.79919297,-0.65784323,-0.08470006,0.07376198,-0.20723604,0.5172501
887,8.869999999999855,0.78144807,-0.6580262,-0.11025034,0.17241672,-0.13332134,0.5102252
888,8.879999999999855,0.76016635,-0.6601605,-0.13043444,0.2706133,0.008857546,0.49556443
889,8.889999999999855,0.7455313,-0.6549163,-0.1325687,0.31138855,0.12873985,0.5002986
890,8.899999999999855,0.7203469,-0.6422936,-0.10518907,0.3202461,0.24587326,0.5145013
891,8.909999999999854,0.7621176,-0.6692464,-0.07323598,0.3061962,0.31429017,0.5288566
892,8.919999999999854,0.7658374,-0.67839324,-0.050185855,0.26053402,0.3492622,0.5308419
893,8.929999999999854,0.784375,-0.70211416,-0.034636166,0.26053402,0.3492622,0.5308419
894,8.939999999999854,0.7798626,-0.7001628,-0.025428312,0.09483683,0.22983804,0.5377141
895,8.949999999999854,0.7739476,-0.69626015,-0.017744938,-0.0036651916,0.12308934,0.5484043
896,8.959999999999853,0.75772715,-0.67686874,-0.016708292,-0.15714508,-0.01572978,0.5884159
897,8.969999999999853,0.7496779,-0.6510746,-0.0102445,-0.27229318,-0.059101213,0.62949663
898,8.979999999999853,0.7413237,-0.63796407,-0.009024917,-0.33368513,-0.055741455,0.6646214
899,8.989999999999853,0.746446,-0.62473154,0.005000292,-0.41645738,-0.02321288,0.73731434
900,8.999999999999853,0.7540684,-0.62217045,0.021586625,-0.4538729,0.01572978,0.79076505
901,9.009999999999852,0.7662642,-0.6366835,0.033599522,-0.4578435,0.019394971,0.8518516
902,9.019999999999852,0.7662642,-0.6366835,0.033599522,-0.4578435,0.019394971,0.8518516
903,9.029999999999852,0.7662642,-0.6366835,0.033599522,-0.4578435,0.019394971,0.8518516
904,9.039999999999852,0.75120234,-0.66955125,-0.0012195833,-0.13194689,-0.16890424,0.86086184
905,9.049999999999851,0.7197371,-0.72010297,-0.047258858,-0.13194689,-0.16890424,0.86086184
906,9.059999999999851,0.7197371,-0.72010297,-0.047258858,-0.02733622,-0.17211129,0.7806858
907,9.069999999999851,0.6751004,-0.7585198,-0.09494456,0.03940081,0.011301007,0.6507242
908,9.07999999999985,0.63095146,-0.7695571,-0.106957465,0.01817324,0.11728613,0.6036876
909,9.08999999999985,0.64095205,-0.7938878,-0.120189935,0.01817324,0.11728613,0.6036876
910,9.09999999999985,0.64095205,-0.7938878,-0.120189935,-0.03268129,0.20479257,0.5858198
911,9.10999999999985,0.60259616,-0.80876666,-0.12720254,-0.19517145,0.24388795,0.47342056
912,9.11999999999985,0.5699723,-0.81968194,-0.11817763,-0.19517145,0.24388795,0.47342056
913,9.12999999999985,0.56100833,-0.8269995,-0.09963996,-0.3390302,0.19883664,0.40286562
914,9.13999999999985,0.56485003,-0.8323047,-0.085431814,-0.36728272,0.2182316,0.38805214
915,9.14999999999985,0.5921077,-0.8729778,-0.061223082,-0.3472769,0.34284812,0.3631594
916,9.15999999999985,0.63863486,-0.8946254,-0.069760166,-0.2817616,0.44318274,0.33750305
917,9.169999999999849,0.67266124,-0.9237734,-0.091956586,-0.17806722,0.5183192,0.3231477
918,9.179999999999849,0.699614,-0.9466406,-0.1411058,-0.12140947,0.50518554,0.2941316
919,9.189999999999849,0.7042484,-0.95206773,-0.163912,-0.14676037,0.45249844,0.28924468
920,9.199999999999848,0.69607717,-0.95359224,-0.17568098,-0.3043636,0.35888332,0.3303254
921,9.209999999999848,0.6332077,-0.8888324,-0.06597946,-0.8213083,0.34132096,0.5839872
922,9.219999999999848,0.5996082,-0.8219382,0.036160648,-1.0274754,0.36728272,0.8003862
923,9.229999999999848,0.5996082,-0.8219382,0.036160648,-1.0274754,0.36728272,0.8003862
924,9.239999999999847,0.5996082,-0.8219382,0.036160648,-1.0261009,0.3810272,0.97158116
925,9.249999999999847,0.61174303,-0.55411774,0.22836697,-0.63453627,0.41920626,1.1940888
926,9.259999999999847,0.640891,-0.48941877,0.15183812,-0.31963524,0.27458394,1.1685852
927,9.269999999999847,0.64412296,-0.46972254,0.057625312,-0.044898596,0.041691553,0.9963212
928,9.279999999999847,0.62753665,-0.49490693,-0.02414775,-0.044898596,0.041691553,0.9963212
929,9.289999999999846,0.62753665,-0.49490693,-0.02414775,0.10598512,-0.13454308,0.77534074
930,9.299999999999846,0.61692625,-0.60674274,-0.066223375,0.19822577,-0.35705075,0.1797471
931,9.309999999999846,0.58381456,-0.7921194,-0.05646671,0.15989397,-0.3417791,0.016798794
932,9.319999999999846,0.5439342,-1.0519516,-0.009817646,0.14019357,-0.29428434,-0.029932396
933,9.329999999999846,0.51356655,-1.0877464,-0.025306353,0.14767668,-0.2846632,-0.08750644
934,9.339999999999845,0.4177683,-1.0334749,-0.081956,0.2087632,-0.35628715,-0.15409076
935,9.349999999999845,0.4177683,-1.0334749,-0.081956,0.2087632,-0.35628715,-0.15409076
936,9.359999999999845,0.22458628,-0.8963328,-0.096347086,0.30955598,-0.59971696,-0.11942416
937,9.369999999999845,0.17604686,-0.86730665,-0.085004956,0.3145956,-0.64843345,-0.07391469
938,9.379999999999844,0.21909817,-0.79559517,-0.14391084,0.25137106,-0.63407815,0.043066
939,9.389999999999844,0.21909817,-0.79559517,-0.14391084,0.118202426,-0.441961,0.15149458
940,9.399999999999844,0.5529591,-0.74053097,-0.17293692,-0.021380283,-0.14370605,0.1554652
941,9.409999999999844,0.5529591,-0.74053097,-0.17293692,-0.09697486,0.07040222,0.02565634
942,9.419999999999844,0.5868635,-0.7332745,-0.10640865,-0.034513887,0.13500121,-0.26648995
943,9.429999999999843,0.5868635,-0.7332745,-0.10640865,0.06963864,0.065973446,-0.39400807
944,9.439999999999843,0.5397266,-0.7616908,-0.052442085,0.16523905,-0.048258353,-0.44929138
945,9.449999999999843,0.5012488,-0.82565796,-0.020367041,0.2098322,-0.11881329,-0.45112398
946,9.459999999999843,0.50539535,-0.8475495,-0.029757833,0.22831088,-0.14187345,-0.42760566
947,9.469999999999843,0.50539535,-0.8475495,-0.029757833,0.22678372,-0.13805555,-0.38362336
948,9.479999999999842,0.53082365,-0.8269995,-0.049759,0.22678372,-0.13805555,-0.38362336
949,9.489999999999842,0.53082365,-0.8269995,-0.049759,0.2191479,-0.14049901,-0.3359759
950,9.499999999999842,0.53082365,-0.8269995,-0.049759,0.21960606,-0.21853705,-0.30879238
951,9.509999999999842,0.53082365,-0.8269995,-0.049759,0.21960606,-0.21853705,-0.30879238
952,9.519999999999841,0.55625194,-0.78632635,-0.03146525,0.22388211,-0.3089451,-0.2948952
953,9.529999999999841,0.573692,-0.77699655,-0.029940773,0.21899518,-0.32482758,-0.2790127
954,9.539999999999841,0.5893027,-0.7753501,-0.029757833,0.2041817,-0.33582318,-0.25457808
955,9.54999999999984,0.61314553,-0.77285,-0.027196707,0.1919644,-0.3370449,-0.23869559
956,9.55999999999984,0.6184507,-0.769862,-0.027623562,0.19547687,-0.33582318,-0.22525656
957,9.56999999999984,0.6281464,-0.766874,-0.02420873,0.21762075,-0.34666604,-0.22143865
958,9.57999999999984,0.63211006,-0.76297134,-0.031038398,0.259465,-0.36713,-0.22708915
959,9.58999999999984,0.6307075,-0.7634592,-0.03640456,0.27672195,-0.38530326,-0.23548855
960,9.59999999999984,0.6219875,-0.7630323,-0.039392542,0.29810223,-0.41584653,-0.2695443
961,9.60999999999984,0.60162044,-0.7641909,-0.049332146,0.33124167,-0.38515055,-0.3306308
962,9.61999999999984,0.60162044,-0.7641909,-0.049332146,0.33124167,-0.38515055,-0.3306308
963,9.62999999999984,0.5864976,-0.76522756,-0.04896627,0.36651915,-0.31429017,-0.38087448
964,9.639999999999839,0.5647281,-0.7912047,-0.050856624,0.4390594,-0.12965615,-0.46914452
965,9.649999999999839,0.56735015,-0.81608415,-0.05390558,0.46303585,-0.0062613687,-0.5209153
966,9.659999999999838,0.567899,-0.8370001,-0.047807667,0.46135598,0.09743301,-0.57528234
967,9.669999999999838,0.59704703,-0.8720021,-0.069028415,0.42913285,0.1873829,-0.6430884
968,9.679999999999838,0.6035718,-0.8836491,-0.07854117,0.4007276,0.25671613,-0.70096785
969,9.689999999999838,0.57613117,-0.89175934,-0.10939662,0.35124752,0.36132678,-0.75686204
970,9.699999999999838,0.5338116,-0.86627007,-0.13012955,0.27550024,0.4914411,-0.73945236
971,9.709999999999837,0.5342385,-0.8346219,-0.14805742,0.20219639,0.57650405,-0.6730208
972,9.719999999999837,0.5483247,-0.8130962,-0.15403338,0.14187345,0.5896377,-0.63545257
973,9.729999999999837,0.57387495,-0.78516775,-0.14488651,0.09911288,0.5685628,-0.63087106
974,9.739999999999837,0.6111332,-0.7267497,-0.09695688,0.08460484,0.54534996,-0.64675355
975,9.749999999999837,0.6827837,-0.6705879,-0.03506302,0.098043874,0.54901516,-0.6441574
976,9.759999999999836,0.6827837,-0.6705879,-0.03506302,0.12614368,0.56398135,-0.63178736
977,9.769999999999836,0.79169255,-0.66253865,-0.014086187,0.15088372,0.54199016,-0.6536258
978,9.779999999999836,0.90578455,-0.6637582,-0.01243975,0.13591751,0.45646906,-0.7182248
979,9.789999999999836,1.0851244,-0.78961927,0.06305246,0.069791354,0.28848112,-0.9100365
980,9.799999999999836,0.8923082,-0.88151485,0.04183171,-0.0067195175,0.17547104,-1.0897835
981,9.809999999999835,0.74888515,-0.84486634,0.038904708,-0.031612277,0.09132435,-0.90010995
982,9.819999999999835,0.74888515,-0.84486634,0.038904708,-0.031612277,0.09132435,-0.90010995
983,9.829999999999835,0.6891866,-0.68497896,0.01683025,0.004886922,-0.14630222,-0.7716755
984,9.839999999999835,0.6838814,-0.68357646,0.005061271,0.038179077,-0.16554448,-0.7664832
985,9.849999999999834,0.6838814,-0.68357646,0.005061271,0.06612616,-0.12018774,-0.7872526
986,9.859999999999834,0.7012604,-0.6699781,-0.03146525,0.064446285,-0.03726278,-0.8229882
987,9.869999999999834,0.7128465,-0.65235513,-0.03158721,0.041691553,0.08093964,-0.8518516
988,9.879999999999834,0.7322379,-0.6487574,-0.021159772,-0.019547688,0.23304509,-0.8503244
989,9.889999999999834,0.7632762,-0.6582701,0.0026221042,-0.091477074,0.31688634,-0.8046622
990,9.899999999999833,0.78583854,-0.6628436,0.037014354,-0.17684549,0.35430184,-0.714865
991,9.909999999999833,0.78583854,-0.6628436,0.037014354,-0.19914207,0.3080288,-0.6047566
992,9.919999999999833,0.7782161,-0.6565017,0.06610142,-0.19914207,0.3080288,-0.6047566
993,9.929999999999833,0.7782161,-0.6565017,0.06610142,-0.07696902,-0.070554934,-0.48243082
994,9.939999999999833,0.7707767,-0.61271864,0.05573496,0.021227567,-0.25060746,-0.47616947
995,9.949999999999832,0.7788869,-0.5626548,-0.009573729,0.17592919,-0.46089783,-0.49403727
996,9.959999999999832,0.7788869,-0.5626548,-0.009573729,0.17592919,-0.46089783,-0.49403727
997,9.969999999999832,0.7824847,-0.5573496,-0.03152623,0.10293079,-0.3575089,-0.5045747
998,9.979999999999832,0.7824847,-0.5573496,-0.03152623,0.10293079,-0.3575089,-0.5045747
999,9.989999999999831,0.79974174,-0.579668,-0.034514207,0.10293079,-0.3575089,-0.5045747
1000,9.999999999999831,0.82706046,-0.61308455,-0.018720604,-0.16218472,0.069485925,-0.3306308
