id,timestamp,acc_x,acc_y,acc_z,gyro_x,gyro_y,gyro_z
0,0,1.0294503,2.5005727,1.1480547,1.2738068,1.9970711,-1.8251126
1,0.01,0.8884055,2.2808647,1.1468961,1.7580702,1.6829338,-2.501035
2,0.02,0.846025,2.0511563,1.1839105,2.208278,1.4702,-2.9646819
3,0.03,0.8365122,1.7167464,1.1615921,2.8347201,1.351234,-3.5081992
4,0.04,0.8365122,1.7167464,1.1615921,2.8347201,1.351234,-3.5081992
5,0.05,0.8365122,1.7167464,1.1615921,2.8347201,1.351234,-3.5081992
6,0.060000000000000005,1.2477558,0.85383034,1.2011676,4.11769,1.5755742,-4.0920334
7,0.07,1.6994286,0.64326924,1.2462922,4.3305764,1.7938058,-4.33134
8,0.08,2.2258005,0.39996237,1.2516584,4.873025,2.0341814,-5.013982
9,0.09,2.3547106,0.32800692,1.2182418,5.0480375,1.9420934,-5.2816935
10,0.09999999999999999,3.3184252,0.10726235,1.3451395,5.289024,0.30909783,-6.2202883
11,0.10999999999999999,3.3184252,0.10726235,1.3451395,5.289024,0.30909783,-6.2202883
12,0.11999999999999998,4.9978523,-0.44362345,1.8541325,5.3139167,-1.4796684,-6.67523
13,0.12999999999999998,4.9978523,-0.44362345,1.8541325,5.4050884,-1.7612772,-6.81298
14,0.13999999999999999,5.8355846,-1.2840992,1.384532,5.2542048,-1.5867225,-7.000516
15,0.15,5.640451,-1.6036912,0.8962718,4.360814,-1.1847731,-7.038389
16,0.16,5.187376,-2.025667,0.58119243,3.201392,-1.0161743,-6.9595876
17,0.17,4.3539734,-2.4470332,0.7271156,1.8275561,-0.36926803,-6.8632236
18,0.18000000000000002,4.3539734,-2.4470332,0.7271156,1.4330899,0.23136522,-6.786255
19,0.19000000000000003,2.3723335,-3.0269449,1.4936237,1.4330899,0.23136522,-6.786255
20,0.20000000000000004,1.554298,-3.3076932,1.3811781,3.755447,0.977079,-6.06635
21,0.21000000000000005,0.4189269,-3.5615494,0.7072364,6.189745,-0.6617198,-4.6056185
22,0.22000000000000006,-0.3840468,-3.6146014,0.011281146,6.189745,-0.6617198,-4.6056185
23,0.23000000000000007,-1.6435106,-3.4052596,-1.1106136,5.9739566,-0.98837996,-3.5424075
24,0.24000000000000007,-1.6435106,-3.4052596,-1.1106136,4.672203,-0.45769078,-1.5758796
25,0.25000000000000006,-1.8981595,-3.2990952,-1.4024599,3.4217618,0.12629639,-0.09972375
26,0.26000000000000006,-1.9679806,-3.1864665,-1.5575908,1.9489655,0.54305923,1.4869987
27,0.2700000000000001,-1.8126059,-3.0781064,-1.507649,0.46853364,0.6226244,2.9562824
28,0.2800000000000001,-1.4924042,-2.9983456,-1.2569027,-0.7458665,0.40210205,4.168086
29,0.2900000000000001,-1.4924042,-2.9983456,-1.2569027,-0.7458665,0.40210205,4.168086
30,0.3000000000000001,-0.5341775,-2.7380257,-0.36746046,-0.7458665,0.40210205,4.168086
31,0.3100000000000001,-0.12738548,-2.4763641,-0.10348164,-2.0645719,-1.3327552,6.9391236
32,0.3200000000000001,0.031038398,-2.4076405,-0.0983594,-2.170557,-1.1985176,7.2729616
33,0.3300000000000001,0.23501371,-2.3122692,-0.08287069,-2.634509,-0.65484756,7.977442
34,0.34000000000000014,0.34239805,-2.2579975,-0.08098034,-2.8851166,-0.41431937,8.210945
35,0.35000000000000014,0.9987778,-2.054937,-0.03500204,-4.0889792,0.86544335,8.776759
36,0.36000000000000015,1.2114731,-1.9512113,-0.010732334,-4.9254065,1.7171422,8.867015
37,0.37000000000000016,1.4590485,-1.7990683,-0.00085370836,-5.792988,2.233018,8.892518
38,0.38000000000000017,1.9089528,-1.6135697,0.13537374,-6.748992,2.3906212,8.973916
39,0.3900000000000002,2.5449047,-1.3292849,0.4744789,-7.3290086,1.9211712,9.26087
40,0.4000000000000002,4.2426257,-0.6077794,1.3739216,-7.212639,0.4474588,9.311725
41,0.4100000000000002,5.7589946,0.16732684,2.0053,-6.6766043,0.1282817,8.3462515
42,0.4200000000000002,6.061512,0.69247943,2.397579,-6.2195244,0.27076602,7.106959
43,0.4300000000000002,5.968946,1.2468411,2.8055296,-5.779091,0.4746423,6.1007113
44,0.4400000000000002,5.2203045,1.744675,2.9434645,-4.3208027,1.9427042,3.8982365
45,0.45000000000000023,4.460748,1.7783353,3.0401773,-3.0498974,2.0259347,2.8513663
46,0.46000000000000024,4.460748,1.7783353,3.0401773,-3.0498974,2.0259347,2.8513663
47,0.47000000000000025,3.182198,1.718271,2.432154,-0.21609358,0.97051215,1.8727602
48,0.48000000000000026,2.891998,1.7055264,2.0585349,0.5891795,0.5688683,1.6899587
49,0.49000000000000027,2.8001635,1.7025993,1.9314543,0.9783007,0.39538252,1.5621351
50,0.5000000000000002,1.9070015,1.7043067,1.0136567,1.6374242,0.3315471,0.9621128
51,0.5100000000000002,1.6536942,1.7335157,0.7319939,1.6215417,0.5007568,0.7840455
52,0.5200000000000002,1.3303825,1.7430894,0.39532796,1.4173601,0.74174315,0.40378192
53,0.5300000000000002,1.3303825,1.7430894,0.39532796,1.4173601,0.74174315,0.40378192
54,0.5400000000000003,1.3303825,1.7430894,0.39532796,1.4173601,0.74174315,0.40378192
55,0.5500000000000003,0.42929336,1.8132155,0.13836174,1.028697,0.6817256,-0.50991976
56,0.5600000000000003,0.2824555,1.794312,0.15854584,1.018465,0.33750305,-1.2339478
57,0.5700000000000003,0.15067953,1.744614,0.25336844,1.1133019,0.110413894,-1.6410894
58,0.5800000000000003,0.134642,1.6913183,0.3810588,1.2356277,-0.038026363,-1.8390098
59,0.5900000000000003,0.134642,1.6913183,0.3810588,1.2356277,-0.038026363,-1.8390098
60,0.6000000000000003,0.134642,1.6913183,0.3810588,1.2356277,-0.038026363,-1.8390098
61,0.6100000000000003,0.134642,1.6913183,0.3810588,1.2356277,-0.038026363,-1.8390098
62,0.6200000000000003,0.73504287,1.0609156,0.8197429,3.132975,0.18891008,-3.3646457
63,0.6300000000000003,0.73504287,1.0609156,0.8197429,3.3017266,0.13545936,-3.853796
64,0.6400000000000003,1.2019604,0.9223099,0.75888574,3.3017266,0.13545936,-3.853796
65,0.6500000000000004,1.2019604,0.9223099,0.75888574,3.3017266,0.13545936,-3.853796
66,0.6600000000000004,1.6528404,0.8232798,0.9000525,3.238502,0.18325958,-4.2178717
67,0.6700000000000004,1.6528404,0.8232798,0.9000525,3.238502,0.18325958,-4.2178717
68,0.6800000000000004,3.9917574,0.30898145,1.9985313,3.5877643,0.5360342,-4.8899765
69,0.6900000000000004,4.8252206,0.021464668,2.2495825,4.084703,0.40943244,-5.075832
70,0.7000000000000004,5.6939907,-0.33154374,2.1691508,4.5895834,0.05100725,-5.280472
71,0.7100000000000004,5.6939907,-0.33154374,2.1691508,4.5895834,0.05100725,-5.280472
72,0.7200000000000004,5.6939907,-0.33154374,2.1691508,4.5895834,0.05100725,-5.280472
73,0.7300000000000004,5.6939907,-0.33154374,2.1691508,4.5895834,0.05100725,-5.280472
74,0.7400000000000004,4.6180134,-1.9602363,0.5000902,1.3686435,0.61727935,-7.183317
75,0.7500000000000004,3.5789282,-2.4522772,0.88023424,0.6462954,0.788627,-7.0382366
76,0.7600000000000005,2.6878397,-2.7351596,1.3080032,0.788627,0.7535023,-6.637051
77,0.7700000000000005,2.6878397,-2.7351596,1.3080032,1.7510452,0.5213735,-6.051384
78,0.7800000000000005,0.09963996,-3.1687214,0.7177248,3.5306485,-0.028863383,-5.2720723
79,0.7900000000000005,0.09963996,-3.1687214,0.7177248,5.1019464,-0.8341365,-4.3756275
80,0.8000000000000005,-0.46941763,-3.2152486,0.07957781,5.5003834,-1.7330247,-2.4425447
81,0.8100000000000005,-0.85389125,-3.192991,-0.4411233,5.5003834,-1.7330247,-2.4425447
82,0.8200000000000005,-1.1515306,-3.08207,-0.82602376,4.6299005,-1.430341,-1.2589933
83,0.8300000000000005,-1.2725742,-3.0832288,-1.2516584,3.3652565,-0.7141015,-0.23365596
84,0.8400000000000005,-1.6804639,-3.196345,-1.5409436,0.03940081,0.267559,1.606881
85,0.8500000000000005,-1.7430286,-3.2328105,-1.2531219,-1.5431983,0.33017266,2.777299
86,0.8600000000000005,-1.7430286,-3.2328105,-1.2531219,-1.5431983,0.33017266,2.777299
87,0.8700000000000006,-1.6931474,-3.2564096,-0.9618854,-2.5410466,-0.5233588,5.053688
88,0.8800000000000006,-1.1250657,-3.0704231,-0.3030055,-2.490803,-0.74082685,5.5185566
89,0.8900000000000006,-0.28641915,-2.7490628,-0.17726645,-2.0793853,-1.3927728,6.8230596
90,0.9000000000000006,0.048905294,-2.6101522,-0.20921952,-1.9857702,-1.58321,7.196298
91,0.9100000000000006,0.48149154,-2.3495884,-0.3386783,-2.13925,-1.717753,7.639939
92,0.9200000000000006,0.8847468,-2.1939695,-0.4495994,-2.803566,-1.5859588,7.950869
93,0.9300000000000006,1.1641533,-2.1100621,-0.36258212,-3.388164,-1.3501649,8.097935
94,0.9400000000000006,1.7420528,-1.8963301,-0.02414775,-4.7731485,-0.34666604,8.392067
95,0.9500000000000006,2.1961038,-1.7164416,0.3353854,-5.381112,0.14065172,8.632136
96,0.9600000000000006,2.8643744,-1.4201438,0.70248,-5.638286,0.3491095,8.782562
97,0.9700000000000006,3.603137,-0.9977411,1.165068,-5.4449472,0.013286319,8.615186
98,0.9800000000000006,4.0938973,-0.7036386,1.3902031,-5.205488,-0.24785857,8.453764
99,0.9900000000000007,5.134751,0.12726352,2.4069088,-3.323565,-1.1757629,7.7280564
100,1.0000000000000007,5.5342865,0.83895135,2.443618,-1.7088956,-1.4544702,7.234172
101,1.0100000000000007,5.564898,1.4916114,1.6644872,-0.54000485,-0.97524637,6.133698
102,1.0200000000000007,4.637527,1.6765003,0.48630884,-1.3578007,0.65393126,4.554611
103,1.0300000000000007,3.8532126,1.6952208,0.53033584,-2.7966938,1.7530305,3.694513
104,1.0400000000000007,3.6960692,1.7048556,0.7927902,-3.1151073,1.8553505,3.2308662
105,1.0500000000000007,3.6960692,1.7048556,0.7927902,-3.1151073,1.8553505,3.2308662
106,1.0600000000000007,3.1360366,1.7398577,1.2170222,-2.7866144,1.6064229,2.797152
107,1.0700000000000007,2.839251,1.753578,1.2041556,-1.4527903,0.8436049,2.1481075
108,1.0800000000000007,2.6719851,1.8485225,1.0502442,-0.19150625,-0.05971208,1.7340937
109,1.0900000000000007,2.6559477,2.0157273,0.79852223,0.559858,-0.31978795,0.95814216
110,1.1000000000000008,2.3952618,2.1121964,0.5320433,0.8246681,-0.26435193,0.2096795
111,1.1100000000000008,2.0510342,2.1204896,0.29019985,0.7359399,0.018325957,-0.48334712
112,1.1200000000000008,1.7420528,2.0615227,0.122629106,0.40133846,0.5279403,-1.112691
113,1.1300000000000008,1.384715,1.9135872,0.11744587,-0.12140947,1.3888022,-1.8522961
114,1.1400000000000008,1.384715,1.9135872,0.11744587,-0.34330627,2.158034,-2.417194
115,1.1500000000000008,0.6297928,1.627412,0.3273362,-0.34330627,2.158034,-2.417194
116,1.1600000000000008,0.39563283,1.5430778,0.45124584,0.63148195,2.0645719,-2.8718302
117,1.1700000000000008,0.33294627,1.4788668,0.46996644,1.2292136,1.5042557,-2.967278
118,1.1800000000000008,0.34544697,1.3603233,0.40673104,2.7259862,-0.41172317,-3.35365
119,1.1900000000000008,0.70827305,1.1904963,0.24629487,2.7259862,-0.41172317,-3.35365
120,1.2000000000000008,1.1023813,1.0663427,0.29221216,2.7000244,-0.81214535,-4.0286565
121,1.2100000000000009,1.1023813,1.0663427,0.29221216,2.7000244,-0.81214535,-4.0286565
122,1.2200000000000009,1.8159596,0.7333355,0.54515374,2.132225,0.016340645,-4.997336
123,1.2300000000000009,2.1743953,0.5183839,0.7565076,1.866346,0.68294734,-5.4530416
124,1.2400000000000009,2.1743953,0.5183839,0.7565076,1.866346,0.68294734,-5.4530416
125,1.2500000000000009,2.1743953,0.5183839,0.7565076,2.329382,0.9129381,-6.155842
126,1.260000000000001,3.0545075,0.031099375,1.3614819,1.8901697,1.0474812,-5.806732
127,1.270000000000001,3.8366263,-0.3978281,1.6435716,3.485139,-0.5920811,-6.168059
128,1.280000000000001,3.8366263,-0.3978281,1.6435716,3.485139,-0.5920811,-6.168059
129,1.290000000000001,3.8366263,-0.3978281,1.6435716,3.485139,-0.5920811,-6.168059
130,1.300000000000001,3.8366263,-0.3978281,1.6435716,3.485139,-0.5920811,-6.168059
131,1.310000000000001,5.7032595,-1.440145,0.25946635,4.301408,-1.238682,-6.114914
132,1.320000000000001,4.246589,-2.1663458,0.32788497,-0.6693556,1.9657644,-6.9215612
133,1.330000000000001,3.3078148,-2.5153296,0.7306524,-0.6693556,1.9657644,-6.9215612
134,1.340000000000001,3.3078148,-2.5153296,0.7306524,-0.6693556,1.9657644,-6.9215612
135,1.350000000000001,3.3078148,-2.5153296,0.7306524,-0.6693556,1.9657644,-6.9215612
136,1.360000000000001,3.3078148,-2.5153296,0.7306524,-0.6693556,1.9657644,-6.9215612
137,1.370000000000001,0.38977882,-3.1162186,0.87444127,0.8046622,2.5659394,-6.0913954
138,1.380000000000001,-0.60466945,-3.0136516,-0.31800637,3.9692497,0.2843578,-4.244139
139,1.390000000000001,-0.60466945,-3.0136516,-0.31800637,3.9692497,0.2843578,-4.244139
140,1.400000000000001,-0.60466945,-3.0136516,-0.31800637,3.9692497,0.2843578,-4.244139
141,1.410000000000001,-0.60466945,-3.0136516,-0.31800637,3.9692497,0.2843578,-4.244139
142,1.420000000000001,-0.60466945,-3.0136516,-0.31800637,3.9692497,0.2843578,-4.244139
143,1.430000000000001,-1.0356092,-2.8827293,-1.0349385,3.6800048,-0.6009387,-0.9857838
144,1.440000000000001,-1.1096989,-2.7772963,-0.89163744,-1.9292651,-0.6553057,4.075693
145,1.450000000000001,-1.1096989,-2.7772963,-0.89163744,-1.9292651,-0.6553057,4.075693
146,1.460000000000001,-0.22903776,-2.4988043,-0.21580528,-1.9886718,-1.0743593,5.561012
147,1.470000000000001,0.097749606,-2.2609856,-0.2315379,-1.6055065,-1.1910346,5.969986
148,1.480000000000001,0.25660032,-2.1239045,-0.35343525,-1.5100589,-1.2423472,6.2705317
149,1.490000000000001,0.4441113,-1.9244416,-0.50948095,-1.7599027,-1.1129965,6.487389
150,1.500000000000001,0.5752165,-1.7910192,-0.6404032,-2.2924244,-0.8268061,6.6932507
151,1.5100000000000011,0.7168101,-1.6906475,-0.77474034,-3.3904548,-0.321926,6.948592
152,1.5200000000000011,0.7873021,-1.6577187,-0.82267,-4.2416954,-0.0047342055,7.1437635
153,1.5300000000000011,1.0892099,-1.6995504,-0.7650446,-6.176153,0.6123924,7.6196275
154,1.5400000000000011,1.8051053,-1.753456,-0.42435405,-7.4892077,0.9842566,7.9449134
155,1.5500000000000012,1.8051053,-1.753456,-0.42435405,-9.082955,1.336115,8.340907
156,1.5600000000000012,2.8224206,-1.7762622,0.078785084,-10.431746,1.3946054,8.272184
157,1.5700000000000012,4.803451,-0.80693734,3.3497686,-10.689684,1.1779009,8.037765
158,1.5800000000000012,4.803451,-0.80693734,3.3497686,-4.3687553,-3.2241468,5.6404243
159,1.5900000000000012,5.1297503,0.1515942,4.039565,-2.701246,-3.4524577,5.068349
160,1.6000000000000012,4.6342945,1.1681778,3.0089562,-1.2696834,-2.435978,4.6450195
161,1.6100000000000012,4.6817365,1.3666651,2.523135,-1.229519,-1.2812898,4.426482
162,1.6200000000000012,4.4686146,1.6614385,2.1586626,-2.0134118,1.1264355,3.3716707
163,1.6300000000000012,3.9162652,1.7080265,2.0931098,-2.3709207,2.059074,2.553264
164,1.6400000000000012,3.1953082,1.6990626,2.1986039,-2.2542455,2.1256583,1.7829629
165,1.6500000000000012,2.7935774,1.6832079,2.4184337,-1.295187,1.2680036,1.2579242
166,1.6600000000000013,2.5088658,1.6738172,2.4800227,-0.4109596,0.6921103,1.0016663
167,1.6700000000000013,2.1640286,1.6285096,2.0809143,1.1661417,0.1777618,0.5342017
168,1.6800000000000013,1.9270637,1.6085695,1.6548527,1.7757853,0.27748555,0.26236662
169,1.6900000000000013,1.5735065,1.6560721,1.197021,2.0204368,0.7254025,-0.052381694
170,1.7000000000000013,1.5735065,1.6560721,1.197021,2.0204368,0.7254025,-0.052381694
171,1.7100000000000013,0.77791125,1.6267412,0.5807656,1.986381,1.5445728,-0.54412824
172,1.7200000000000013,0.77791125,1.6267412,0.5807656,2.0489948,1.6481144,-0.89766645
173,1.7300000000000013,0.77791125,1.6267412,0.5807656,2.0489948,1.6481144,-0.89766645
174,1.7400000000000013,0.47527164,1.390386,0.42081723,2.2021692,1.4410311,-1.264033
175,1.7500000000000013,0.47527164,1.390386,0.42081723,2.2021692,1.4410311,-1.264033
176,1.7600000000000013,0.3983159,1.235072,0.45996585,2.7162123,0.6391178,-1.805565
177,1.7700000000000014,0.597169,0.8786488,0.47850356,3.9692497,-0.9246973,-2.2682953
178,1.7800000000000014,0.8845028,0.82437736,0.48447952,4.094324,-1.0841331,-2.4785857
179,1.7900000000000014,1.1612263,0.7671179,0.4850283,4.0955462,-0.97600996,-2.8435776
180,1.8000000000000014,1.1612263,0.7671179,0.4850283,4.0955462,-0.97600996,-2.8435776
181,1.8100000000000014,1.7482117,0.57710683,0.4416111,3.641826,0.06841691,-4.089285
182,1.8200000000000014,1.879561,0.47716197,0.47679612,3.3276885,0.37033707,-4.4186935
183,1.8300000000000014,2.2845845,0.22074458,0.7305914,3.1096096,0.6232353,-4.951979
184,1.8400000000000014,2.4290442,0.0954324,0.8860883,3.1841352,0.50610185,-5.1615057
185,1.8500000000000014,2.746502,-0.1674488,1.1283585,3.5210273,-0.019242255,-5.3210945
186,1.8600000000000014,3.1551843,-0.4897237,1.352335,4.062254,-0.8052731,-5.1089716
187,1.8700000000000014,4.3106174,-0.73370135,1.478013,4.646088,-1.6334536,-4.7702465
188,1.8800000000000014,5.13347,-0.7866922,1.3031858,4.8522553,-1.9654589,-4.8055243
189,1.8900000000000015,5.7223463,-0.846025,0.6885158,4.139681,-1.6007724,-5.5842247
190,1.9000000000000015,5.764848,-1.1262852,0.30544463,2.6945267,-1.1780536,-6.1570635
191,1.9100000000000015,5.2609777,-1.6962576,0.28446782,0.45616361,-0.18402316,-6.9925747
192,1.9200000000000015,4.7138724,-2.0594494,0.5266771,-0.68936145,0.5552765,-7.282888
193,1.9300000000000015,2.5648448,-2.7765033,1.6971112,-0.8381071,2.3237314,-6.8128276
194,1.9400000000000015,2.5648448,-2.7765033,1.6971112,-0.8381071,2.3237314,-6.8128276
195,1.9500000000000015,0.9362132,-2.86596,1.4143509,1.2759448,2.0538816,-5.978691
196,1.9600000000000015,0.33032414,-2.8754725,0.82901174,4.7931542,0.11682798,-4.560109
197,1.9700000000000015,0.33032414,-2.8754725,0.82901174,4.7931542,0.11682798,-4.560109
198,1.9800000000000015,0.33032414,-2.8754725,0.82901174,4.7931542,0.11682798,-4.560109
199,1.9900000000000015,0.33032414,-2.8754725,0.82901174,4.7931542,0.11682798,-4.560109
200,2.0000000000000013,0.33032414,-2.8754725,0.82901174,4.7931542,0.11682798,-4.560109
201,2.010000000000001,-1.4427061,-2.508683,-1.1050035,1.2298244,-0.27290404,0.92057395
202,2.020000000000001,-1.2677569,-2.5191104,-0.8931009,-0.269697,0.58062744,2.523637
203,2.0300000000000007,-1.2677569,-2.5191104,-0.8931009,-0.269697,0.58062744,2.523637
204,2.0400000000000005,-1.2677569,-2.5191104,-0.8931009,-0.269697,0.58062744,2.523637
205,2.0500000000000003,-1.2677569,-2.5191104,-0.8931009,-0.269697,0.58062744,2.523637
206,2.06,-0.48941877,-2.2790353,-0.48472342,-0.8597928,0.6966918,3.3501377
207,2.07,-0.38416874,-2.1592114,-0.556313,-1.2788464,-0.5346598,5.181512
208,2.0799999999999996,-0.30879852,-2.145918,-0.64491564,-1.5143349,-0.6563747,5.592777
209,2.0899999999999994,-0.30879852,-2.145918,-0.64491564,-1.5143349,-0.6563747,5.592777
210,2.099999999999999,-0.30879852,-2.145918,-0.64491564,-1.5143349,-0.6563747,5.592777
211,2.109999999999999,-0.30879852,-2.145918,-0.64491564,-1.5143349,-0.6563747,5.592777
212,2.1199999999999988,-0.30879852,-2.145918,-0.64491564,-1.5143349,-0.6563747,5.592777
213,2.1299999999999986,1.7726034,-1.5483221,-0.21379296,-6.1833305,-0.08536842,7.8645844
214,2.1399999999999983,2.0650594,-1.3594086,0.3608747,-6.1833305,-0.08536842,7.8645844
215,2.149999999999998,2.0650594,-1.3594086,0.3608747,-5.9647937,-1.4071281,7.855574
216,2.159999999999998,2.4011767,-1.317394,1.1054304,-5.9647937,-1.4071281,7.855574
217,2.1699999999999977,2.4011767,-1.317394,1.1054304,-5.329494,-2.5294402,8.764542
218,2.1799999999999975,4.0552363,-1.112443,1.5035024,-3.9548943,-2.7743971,11.324984
219,2.1899999999999973,5.2665877,-1.0440243,1.6512548,-3.983147,-0.9062186,11.823603
220,2.199999999999997,6.0770617,-0.62686586,1.7624198,-3.983147,-0.9062186,11.823603
221,2.209999999999997,6.0770617,-0.62686586,1.7624198,-3.983147,-0.9062186,11.823603
222,2.2199999999999966,6.4744024,0.042868353,1.6460718,-4.4102945,2.3445008,9.835388
223,2.2299999999999964,5.915772,1.3997767,1.3777024,-5.711743,4.151746,3.1989486
224,2.239999999999996,4.8572955,1.07427,1.7482728,-5.8010817,4.467563,0.2695443
225,2.249999999999996,3.808881,0.5334458,1.9710296,-5.340795,4.549419,-0.80939645
226,2.259999999999996,2.6381416,0.33373898,2.2838528,-3.287066,3.503923,-1.6571246
227,2.2699999999999956,2.1636627,0.3782538,2.3262942,-2.331978,2.7714956,-1.6713274
228,2.2799999999999954,1.3954473,0.655648,1.5681403,0.44898596,0.3846924,-1.5202909
229,2.289999999999995,1.3954473,0.655648,1.5681403,1.7847955,-0.86391616,-1.452943
230,2.299999999999995,1.1686656,0.93121284,1.018657,2.59633,-1.6584991,-1.5607607
231,2.3099999999999947,1.0089613,1.11226,0.6454645,2.4161248,-1.3976597,-1.8614591
232,2.3199999999999945,0.67888105,1.1713488,0.5697893,2.17804,-1.0795516,-2.011121
233,2.3299999999999943,0.67888105,1.1713488,0.5697893,0.9947941,1.1420126,-2.6284003
234,2.339999999999994,0.46600276,1.0860391,0.80602264,0.9947941,1.1420126,-2.6284003
235,2.349999999999994,0.2891632,1.0018877,1.0431097,0.9947941,1.1420126,-2.6284003
236,2.3599999999999937,0.2891632,1.0018877,1.0431097,0.9947941,1.1420126,-2.6284003
237,2.3699999999999934,0.119641125,0.5726553,1.2420846,4.252538,0.6441574,-2.5932758
238,2.3799999999999932,0.39788908,0.44191605,0.9818866,5.30903,0.27351493,-2.519361
239,2.389999999999993,0.39788908,0.44191605,0.9818866,5.30903,0.27351493,-2.519361
240,2.399999999999993,1.2803186,0.45118487,0.51448125,5.956547,-0.37843102,-2.8367054
241,2.4099999999999926,1.838461,0.47161287,0.34928867,5.7123537,-0.6412558,-3.6494617
242,2.4199999999999924,2.3459904,0.44728217,0.30251765,5.115538,-0.7247916,-4.7600145
243,2.429999999999992,2.52594,0.20208496,0.39112037,4.3319507,-0.7162395,-5.4525833
244,2.439999999999992,2.81303,-0.07939488,0.65576994,3.6888626,-0.6739371,-5.511837
245,2.4499999999999917,3.422639,-0.3838029,1.056952,3.3385313,-0.5329799,-5.296965
246,2.4599999999999915,4.284396,-0.77589893,1.2915998,3.3797648,-0.16875152,-5.063309
247,2.4699999999999913,5.379826,-1.3752631,1.1929965,3.7418551,0.47907108,-5.20671
248,2.479999999999991,5.4142795,-1.5272843,0.8502325,3.8423424,0.6012441,-5.5626917
249,2.489999999999991,5.2006693,-1.7671763,0.46460027,2.8150198,-0.36453384,-6.269768
250,2.4999999999999907,4.88309,-2.0213375,0.39679146,2.2163718,-0.6568329,-6.5684814
251,2.5099999999999905,4.3480587,-2.1644557,0.5647281,2.2163718,-0.6568329,-6.5684814
252,2.5199999999999902,3.5258763,-2.4450207,0.96633685,1.9643899,-0.57818395,-6.7367744
253,2.52999999999999,1.9025501,-2.7770522,0.9897529,2.5428793,-0.30192015,-6.5274005
254,2.53999999999999,1.9025501,-2.7770522,0.9897529,3.362355,-0.29123,-6.108805
255,2.5499999999999896,0.46594182,-2.8302872,0.09299323,4.3337836,-0.60154957,-5.4945803
256,2.5599999999999894,-0.13220283,-2.7707105,-0.38203448,4.636009,-1.2788464,-4.3510404
257,2.569999999999989,-0.13220283,-2.7707105,-0.38203448,4.636009,-1.2788464,-4.3510404
258,2.579999999999989,-0.9723128,-2.6128354,-0.89139354,2.520888,-1.0612257,-2.6207647
259,2.5899999999999888,-1.1728734,-2.5946636,-0.93017626,1.5538884,-0.7124216,-1.967597
260,2.5999999999999885,-1.3830684,-2.6684482,-1.0239623,0.66523224,-0.5337435,-1.2716687
261,2.6099999999999883,-1.7351623,-2.7509532,-1.0050586,-0.48731774,-0.5626069,-0.2060143
262,2.619999999999988,-1.8652918,-2.8579717,-0.8471836,-1.5337299,-0.5439755,1.0633637
263,2.629999999999988,-1.8026052,-2.892181,-0.55369085,-2.2621868,-0.48670688,2.371226
264,2.6399999999999877,-1.6880863,-2.8900466,-0.40496266,-2.5213463,-0.4978552,3.326314
265,2.6499999999999875,-1.6880863,-2.8900466,-0.40496266,-2.5781567,-0.5751296,4.1225767
266,2.6599999999999873,-1.1811055,-2.6566794,-0.2034265,-2.475226,-0.88407475,5.161964
267,2.669999999999987,-1.1811055,-2.6566794,-0.2034265,-2.475226,-0.88407475,5.161964
268,2.679999999999987,-1.1811055,-2.6566794,-0.2034265,-2.475226,-0.88407475,5.161964
269,2.6899999999999866,-1.1811055,-2.6566794,-0.2034265,-2.475226,-0.88407475,5.161964
270,2.6999999999999864,0.2762356,-2.1293924,-0.26788148,-2.988811,-1.2076806,7.0733614
271,2.709999999999986,0.5313725,-2.0057878,-0.21617115,-3.571271,-0.9410379,7.4624825
272,2.719999999999986,0.94048166,-1.8781583,-0.106957465,-4.0688205,-0.7677049,7.8929896
273,2.7299999999999858,0.94048166,-1.8781583,-0.106957465,-4.0688205,-0.7677049,7.8929896
274,2.7399999999999856,0.94048166,-1.8781583,-0.106957465,-4.0688205,-0.7677049,7.8929896
275,2.7499999999999853,3.7342424,-0.85712314,0.88358814,-4.5724792,-0.8332202,8.636413
276,2.759999999999985,5.923455,0.4306349,1.8730972,-2.5764768,-1.9824104,7.9636974
277,2.769999999999985,6.353968,1.1727513,1.7620541,-1.3246613,-1.1714869,6.312987
278,2.7799999999999847,6.353968,1.1727513,1.7620541,-1.278541,0.31597003,5.0654473
279,2.7899999999999845,6.353968,1.1727513,1.7620541,-1.278541,0.31597003,5.0654473
280,2.7999999999999843,6.353968,1.1727513,1.7620541,-1.278541,0.31597003,5.0654473
281,2.809999999999984,6.353968,1.1727513,1.7620541,-1.278541,0.31597003,5.0654473
282,2.819999999999984,5.5120897,2.0056658,0.82187724,-2.7278187,2.6917777,1.1586586
283,2.8299999999999836,2.9280977,1.7190636,1.3584329,-1.6293303,1.7240144,-0.0012217305
284,2.8399999999999834,2.9280977,1.7190636,1.3584329,-0.8347474,1.5636623,-0.3662137
285,2.849999999999983,1.8954766,1.6291195,1.1372614,0.28955013,1.4772248,-0.8321512
286,2.859999999999983,1.5999714,1.6091793,0.96786135,0.6079636,1.4485142,-0.98670006
287,2.869999999999983,1.1203703,1.5903367,0.725957,1.2819008,1.4057536,-1.3773484
288,2.8799999999999826,0.68211293,1.5683842,0.49624845,1.8208365,1.3805555,-1.7408133
289,2.8899999999999824,0.32617757,1.522101,0.28660208,2.1809416,1.323745,-2.0821342
290,2.899999999999982,0.1273245,1.410936,0.20263378,2.4098635,1.2148583,-2.334727
291,2.909999999999982,-0.2277572,1.1200653,0.30160296,3.1412218,0.6965391,-2.7047586
292,2.9199999999999817,-0.2277572,1.1200653,0.30160296,3.1412218,0.6965391,-2.7047586
293,2.9299999999999815,-0.26233238,0.96841013,0.34062964,3.7513235,0.30100384,-2.8362474
294,2.9399999999999813,-0.23196477,0.7884607,0.23544057,4.133267,0.06765333,-2.9087875
295,2.949999999999981,-0.16446081,0.67479545,0.080614455,4.317443,-0.066737026,-3.0025554
296,2.959999999999981,-0.041465834,0.6318661,-0.009268833,4.2642975,-0.111177474,-3.089451
297,2.9699999999999807,-0.041465834,0.6318661,-0.009268833,4.2642975,-0.111177474,-3.089451
298,2.9799999999999804,1.3692262,0.8543791,0.2497097,3.2586606,0.2593123,-3.3518176
299,2.9899999999999802,1.9454794,0.97639847,0.41136545,3.157868,0.2003638,-3.8599048
300,2.99999999999998,1.9454794,0.97639847,0.41136545,3.157868,0.2003638,-3.8599048
301,3.00999999999998,2.9023035,0.99463123,0.8973694,3.059824,-0.10644327,-5.3139167
302,3.0199999999999796,3.469349,0.82925564,1.2783062,3.2371275,-0.26542094,-5.4588447
303,3.0299999999999794,4.4212947,0.5116762,1.4716103,3.6622899,-0.2649628,-5.283679
304,3.039999999999979,5.3555565,0.2564174,1.240926,4.0063596,-0.11499538,-5.2369475
305,3.049999999999979,5.8380237,0.009695687,0.7507755,3.912439,-0.15378532,-5.456401
306,3.0599999999999787,5.8411946,-0.23970911,0.18373023,2.8087585,-0.3801109,-6.014121
307,3.0699999999999785,4.8483925,-1.3794707,0.31837222,2.1012237,-0.43860126,-6.221357
308,3.0799999999999783,4.8483925,-1.3794707,0.31837222,-0.5885687,0.10873401,-6.781368
309,3.089999999999978,3.7866235,-1.9590777,0.9254808,-1.5480852,1.3319917,-6.637051
310,3.099999999999978,2.9484036,-2.2146416,1.4133751,-1.2707524,1.7980819,-6.2909956
311,3.1099999999999777,2.9484036,-2.2146416,1.4133751,-1.2707524,1.7980819,-6.2909956
312,3.1199999999999775,0.7707767,-2.5077682,0.9735934,3.3819027,0.6252206,-3.954436
313,3.1299999999999772,0.027013771,-2.6271656,0.1460451,4.779715,-0.49220467,-2.9452868
314,3.139999999999977,0.027013771,-2.6271656,0.1460451,4.779715,-0.49220467,-2.9452868
315,3.149999999999977,-0.31593305,-2.648752,-0.3059325,4.830264,-0.89720833,-2.2618814
316,3.1599999999999766,-0.31593305,-2.648752,-0.3059325,4.830264,-0.89720833,-2.2618814
317,3.1699999999999764,-0.31593305,-2.648752,-0.3059325,4.830264,-0.89720833,-2.2618814
318,3.179999999999976,-1.5361872,-2.9148042,-1.2632444,0.04596761,-0.14492778,1.6759088
319,3.189999999999976,-1.5846046,-3.026091,-1.0829899,0.04596761,-0.14492778,1.6759088
320,3.1999999999999758,-1.4470357,-3.0853019,-0.8128523,-2.084883,0.06047566,4.1964917
321,3.2099999999999755,-1.2054971,-3.0831068,-0.59021735,-2.3683245,-0.11224649,4.9307513
322,3.2199999999999753,-0.66180694,-2.8844366,-0.18714507,-2.166739,-0.86727595,5.9907556
323,3.229999999999975,-0.25678328,-2.6833274,-0.10464026,-1.6423112,-1.4624114,6.547101
324,3.239999999999975,0.07841921,-2.488438,-0.15872878,-1.3406965,-1.7383698,6.851159
325,3.2499999999999747,0.27611366,-2.3282456,-0.28739482,-1.3242031,-1.7353154,7.170489
326,3.2599999999999745,0.406853,-2.199092,-0.37197292,-1.5560265,-1.5703819,7.4130025
327,3.2699999999999743,0.68308866,-2.034082,-0.3614845,-1.5560265,-1.5703819,7.4130025
328,3.279999999999974,0.9846306,-1.9061477,-0.2669668,-2.7614164,-0.7893906,8.285471
329,3.289999999999974,1.6674144,-1.6294243,-0.077382565,-3.4680347,-0.4746423,8.667567
330,3.2999999999999736,2.2074459,-1.2812333,0.16494864,-3.7030652,-0.5748242,8.768054
331,3.3099999999999734,2.7096093,-1.0085344,0.48240623,-3.632052,-0.8219192,8.8905325
332,3.319999999999973,5.3176274,0.62826836,1.1540917,-1.5494597,-1.0800097,7.9493423
333,3.329999999999973,5.3176274,0.62826836,1.1540917,-1.0926852,-0.45540005,6.7567806
334,3.3399999999999728,5.07304,1.703453,0.74321413,-1.1027645,-0.09025534,6.1043763
335,3.3499999999999726,5.0285254,2.0092025,0.58064365,-1.1027645,-0.09025534,6.1043763
336,3.3599999999999723,5.0285254,2.0092025,0.58064365,-1.3084733,0.24465153,5.660125
337,3.369999999999972,5.0285254,2.0092025,0.58064365,-1.3084733,0.24465153,5.660125
338,3.379999999999972,5.0285254,2.0092025,0.58064365,-1.3084733,0.24465153,5.660125
339,3.3899999999999717,3.6650918,2.58448,0.8362074,-3.3096678,1.6751453,1.2545645
340,3.3999999999999715,3.2465918,2.4659364,1.1336638,-3.3096678,1.6751453,1.2545645
341,3.4099999999999713,2.8037002,2.300988,1.3130034,-1.8774943,0.74128497,0.14813483
342,3.419999999999971,2.3808706,2.1360393,1.2913558,-0.79473567,0.31902438,-0.33750305
343,3.429999999999971,2.3808706,2.1360393,1.2913558,-0.79473567,0.31902438,-0.33750305
344,3.4399999999999706,2.3808706,2.1360393,1.2913558,-0.79473567,0.31902438,-0.33750305
345,3.4499999999999704,1.9139531,1.8918786,0.9845696,0.6543894,0.4343252,-1.0946705
346,3.45999999999997,1.4968556,1.5126492,0.4080726,1.4776831,1.0905472,-2.385276
347,3.46999999999997,1.4968556,1.5126492,0.4080726,1.6656768,1.1713341,-2.9985847
348,3.47999999999997,1.1123209,1.2306206,0.27416235,1.8443549,1.1812607,-3.6007452
349,3.4899999999999696,1.1123209,1.2306206,0.27416235,1.8443549,1.1812607,-3.6007452
350,3.4999999999999694,1.1123209,1.2306206,0.27416235,1.8443549,1.1812607,-3.6007452
351,3.509999999999969,0.74540937,0.8473056,0.292761,2.5599835,0.96867955,-4.2082505
352,3.519999999999969,0.9088945,0.45423386,0.3577038,2.754544,0.8564331,-4.2468877
353,3.5299999999999687,0.9088945,0.45423386,0.3577038,3.1451924,0.5720753,-4.254218
354,3.5399999999999685,1.2619029,0.42313445,0.31922594,3.3614388,0.43890667,-4.41625
355,3.5499999999999683,2.1175015,0.33703187,0.25623447,3.4860551,0.28680122,-5.410739
356,3.559999999999968,2.4048355,0.21409786,0.2572711,3.3409748,0.34101552,-6.0063324
357,3.569999999999968,2.4048355,0.21409786,0.2572711,3.3409748,0.34101552,-6.0063324
358,3.5799999999999677,2.4048355,0.21409786,0.2572711,3.3409748,0.34101552,-6.0063324
359,3.5899999999999674,2.7128413,-0.004024625,0.3405077,3.0691397,-0.06001751,-6.1117067
360,3.5999999999999672,4.0436506,-0.936762,0.5450928,3.2107077,-0.17837265,-5.884007
361,3.609999999999967,4.425197,-1.4700857,-0.06683317,3.1850514,-0.54550266,-5.6133933
362,3.619999999999967,4.425197,-1.4700857,-0.06683317,2.7433958,-1.0667235,-5.4586916
363,3.6299999999999666,4.3308625,-1.7126609,-0.14324006,1.5784758,-1.7136297,-5.440213
364,3.6399999999999664,4.3308625,-1.7126609,-0.14324006,1.5784758,-1.7136297,-5.440213
365,3.649999999999966,4.3308625,-1.7126609,-0.14324006,1.5784758,-1.7136297,-5.440213
366,3.659999999999966,2.6951573,-2.2976341,0.94157934,-0.29856038,-1.7574593,-5.5423803
367,3.6699999999999657,1.6225337,-2.549295,1.2692204,0.032375857,0.2182316,-4.803386
368,3.6799999999999655,1.0165228,-2.7264397,1.1420178,0.92271197,0.7144069,-4.162436
369,3.6899999999999653,-0.3752658,-2.8025415,0.31325,2.630233,0.58184916,-2.1093178
370,3.699999999999965,-0.8005955,-2.7554655,0.019452354,2.7111726,0.47342056,-1.5700763
371,3.709999999999965,-0.8005955,-2.7554655,0.019452354,2.3361015,0.23777929,0.63545257
372,3.7199999999999647,-1.4073381,-2.4931333,-0.7413237,1.7676913,0.18616119,1.9570595
373,3.7299999999999645,-1.3678846,-2.4339225,-0.8776122,1.0303769,0.13836098,3.2420146
374,3.7399999999999642,-1.1140894,-2.3861148,-0.88877136,-0.05513059,-0.01740966,4.722294
375,3.749999999999964,-0.8438907,-2.342027,-0.7355917,-0.66859204,-0.1348485,5.4663277
376,3.759999999999964,-0.13714215,-2.2184832,-0.35819164,-1.4876096,-0.35934147,6.5031185
377,3.7699999999999636,0.3081887,-2.0854876,-0.17458336,-1.7179058,-0.38362336,6.726848
378,3.7799999999999634,0.6202191,-1.8961473,-0.093359105,-1.8710803,-0.2603813,6.594596
379,3.789999999999963,0.64003736,-1.7543095,-0.11390909,-2.0567832,-0.12889257,6.3261204
380,3.799999999999963,0.39087647,-1.6351563,-0.17586392,-2.6343563,0.013744468,6.2497625
381,3.8099999999999627,0.39087647,-1.6351563,-0.17586392,-3.1010575,0.076052725,6.571994
382,3.8199999999999625,0.30757892,-1.639425,-0.13281263,-3.1010575,0.076052725,6.571994
383,3.8299999999999623,0.6707708,-1.69766,0.14787449,-3.7358992,0.03940081,7.5089083
384,3.839999999999962,1.2027531,-1.6268632,0.23373315,-3.8658607,-0.013439035,7.8018184
385,3.849999999999962,1.2027531,-1.6268632,0.23373315,-3.9190059,0.0009162979,7.8650427
386,3.8599999999999617,2.3885539,-1.3237967,0.3612406,-3.9197695,-0.10552697,7.726071
387,3.8699999999999615,2.944623,-1.0559152,0.90297955,-3.5781431,-0.56107974,7.7043853
388,3.8799999999999613,3.831992,-0.5860708,1.4840499,-2.403144,-1.4953982,8.049677
389,3.889999999999961,3.831992,-0.5860708,1.4840499,-2.403144,-1.4953982,8.049677
390,3.899999999999961,4.7261906,-0.08384635,1.5019779,-1.3684908,-1.6071864,8.081137
391,3.9099999999999606,4.7261906,-0.08384635,1.5019779,-1.3684908,-1.6071864,8.081137
392,3.9199999999999604,5.582338,0.6125358,1.0648792,-1.3684908,-1.6071864,8.081137
393,3.92999999999996,5.2540264,1.5275891,0.7365064,-1.1220068,0.1572978,6.7761755
394,3.93999999999996,4.6609426,1.5905806,1.1312855,-2.604424,2.3674083,2.4808764
395,3.9499999999999598,3.825589,1.6588163,1.3769706,-1.0315987,0.89766645,1.4825699
396,3.9599999999999596,3.3063517,1.6284487,1.1143333,0.7058548,-0.61926466,0.87949324
397,3.9699999999999593,2.5540514,1.6855251,0.009634708,1.4767667,-1.1265882,0.43142357
398,3.979999999999959,2.5540514,1.6855251,0.009634708,1.3509285,-0.70081514,0.031306844
399,3.989999999999959,2.2212882,1.6694876,-0.24641682,0.8213083,-0.016340645,-0.3578143
400,3.9999999999999587,1.8431562,1.6523526,-0.2947733,0.1956296,0.603993,-0.8034405
401,4.009999999999959,1.5681403,1.6064352,-0.2570272,0.05497787,0.7005097,-0.9601275
402,4.019999999999959,1.4234977,1.5774701,-0.20501198,-0.012980887,0.7254025,-1.1123856
403,4.0299999999999585,0.69424784,1.4660002,0.16525355,-0.012980887,0.7254025,-1.1123856
404,4.039999999999958,0.69424784,1.4660002,0.16525355,1.8287778,-0.38744128,-2.8677068
405,4.049999999999958,0.4355742,1.4106921,0.13604453,1.8287778,-0.38744128,-2.8677068
406,4.059999999999958,0.4355742,1.4106921,0.13604453,1.8287778,-0.38744128,-2.8677068
407,4.069999999999958,0.4355742,1.4106921,0.13604453,1.8287778,-0.38744128,-2.8677068
408,4.079999999999957,0.25519782,1.3855686,0.100432694,2.003638,-0.43768495,-2.9739974
409,4.089999999999957,0.44215995,1.1367736,-0.03225798,2.1569653,-0.12370021,-3.4074063
410,4.099999999999957,0.6784542,1.1206142,-0.05335677,2.0438025,-0.071013086,-3.617544
411,4.109999999999957,0.6784542,1.1206142,-0.05335677,2.0438025,-0.071013086,-3.617544
412,4.119999999999957,0.6784542,1.1206142,-0.05335677,2.0438025,-0.071013086,-3.617544
413,4.129999999999956,0.6784542,1.1206142,-0.05335677,2.0438025,-0.071013086,-3.617544
414,4.139999999999956,1.8244967,0.9256028,0.45417285,2.5900686,-0.38515055,-5.2703924
415,4.149999999999956,2.9076695,0.72144455,0.5138105,3.4087808,-0.93691456,-5.4611354
416,4.159999999999956,3.6102717,0.64967203,0.33849534,3.7591121,-1.3509285,-5.5342865
417,4.1699999999999555,4.4480643,0.503444,0.09140777,3.9161043,-1.7858646,-5.6172113
418,4.179999999999955,4.4480643,0.503444,0.09140777,3.9161043,-1.7858646,-5.6172113
419,4.189999999999955,4.4480643,0.503444,0.09140777,3.9161043,-1.7858646,-5.6172113
420,4.199999999999955,4.4480643,0.503444,0.09140777,3.9161043,-1.7858646,-5.6172113
421,4.209999999999955,6.077306,-0.25611252,-0.96377575,2.516612,-2.7366762,-6.161645
422,4.2199999999999545,6.0516334,-2.2839746,-0.30800578,-4.578435,0.027488936,-7.4667587
423,4.229999999999954,3.8620546,-2.8616912,1.3802634,-3.9112175,0.6750061,-7.4163623
424,4.239999999999954,3.8620546,-2.8616912,1.3802634,-2.1919372,0.49846604,-7.0890913
425,4.249999999999954,2.9019377,-2.9105966,1.794251,-2.1919372,0.49846604,-7.0890913
426,4.259999999999954,1.5639937,-3.0579224,1.4342301,1.3669637,-0.57986385,-6.165463
427,4.269999999999953,0.41234115,-3.1691482,0.44453815,3.3406694,-1.4173601,-4.904179
428,4.279999999999953,-0.18397415,-3.10823,-0.06896744,3.172376,-1.3206906,-4.1153994
429,4.289999999999953,-0.5433854,-3.03225,-0.2923341,2.6180158,-0.9274462,-3.2849278
430,4.299999999999953,-0.84498835,-2.9852962,-0.4352693,1.7484491,-0.27840182,-2.286316
431,4.3099999999999525,-1.3922764,-3.0071878,-0.7255911,1.0503827,0.02733622,-1.4709635
432,4.319999999999952,-1.3922764,-3.0071878,-0.7255911,0.11346822,-0.04886922,-0.35720345
433,4.329999999999952,-1.3694092,-2.9342566,-0.51716435,-0.9126327,-0.32788193,0.96486163
434,4.339999999999952,-1.1362249,-2.8065662,-0.3638627,-1.6029104,-0.7646506,2.2785273
435,4.349999999999952,-0.9738373,-2.6968036,-0.33825144,-1.6850718,-1.087951,2.7186558
436,4.3599999999999515,-0.7139441,-2.4549603,-0.34837398,-1.6850718,-1.087951,2.7186558
437,4.369999999999951,-0.6734539,-2.3104398,-0.33855635,-1.6103935,-2.796541,4.107305
438,4.379999999999951,-0.6734539,-2.3104398,-0.33855635,-1.6103935,-2.796541,4.107305
439,4.389999999999951,-0.31776243,-2.1189651,-0.14531335,-1.7884607,-2.8732047,5.7470202
440,4.399999999999951,0.12043386,-2.0005436,-0.06445498,-1.7884607,-2.8732047,5.7470202
441,4.40999999999995,0.12043386,-2.0005436,-0.06445498,-2.0535762,-1.8290832,7.1601043
442,4.41999999999995,0.8610868,-1.642413,-0.15452121,-2.133905,-1.6116152,7.634594
443,4.42999999999995,1.0798801,-1.5886903,-0.08378538,-2.1415408,-1.6424639,8.144819
444,4.43999999999995,1.4885625,-1.4409987,0.20068243,-1.8413006,-1.7977765,9.135948
445,4.4499999999999496,1.8158987,-1.3171501,0.34471524,-1.4182764,-1.9404135,9.871888
446,4.459999999999949,3.919009,-0.40093803,0.5572277,-0.20280726,-1.8939877,11.237325
447,4.469999999999949,5.7802763,0.63076854,0.15677744,0.2750421,-0.82772243,11.286194
448,4.479999999999949,6.6414847,1.1931794,-0.27422333,-0.41340306,0.89965177,10.2886505
449,4.489999999999949,7.010592,1.8629136,-0.63887876,-0.41340306,0.89965177,10.2886505
450,4.4999999999999485,7.010592,1.8629136,-0.63887876,-1.8975002,2.4572055,8.588307
451,4.509999999999948,5.117067,1.7965682,0.37557068,-3.9666536,3.3466253,4.967556
452,4.519999999999948,4.1151185,1.7541877,1.3703848,-2.9466612,2.2797492,3.9212968
453,4.529999999999948,3.2299445,1.7516875,1.3747144,1.3434454,0.29123,2.925281
454,4.539999999999948,3.2299445,1.7516875,1.3747144,1.3434454,0.29123,2.925281
455,4.549999999999947,2.1797612,1.5622253,0.12927583,2.7727172,0.40194935,2.4274259
456,4.559999999999947,1.8769997,1.498624,-0.12592198,2.7727172,0.40194935,2.4274259
457,4.569999999999947,1.9324907,1.5858852,-0.2209885,2.1285598,1.3552046,2.6041186
458,4.579999999999947,2.1354904,1.7532731,-0.242941,0.7673995,2.8528934,1.9385809
459,4.589999999999947,2.1354904,1.7532731,-0.242941,0.7673995,2.8528934,1.9385809
460,4.599999999999946,2.1354904,1.7532731,-0.242941,0.7673995,2.8528934,1.9385809
461,4.609999999999946,0.9065772,1.6139356,0.29715148,0.5145013,1.8147279,-0.57894754
462,4.619999999999946,0.43478146,1.481001,0.46947864,2.1928535,-0.12858713,-2.0247128
463,4.629999999999946,0.24135554,1.3789219,0.47661316,2.9498682,-0.5539021,-2.2849414
464,4.6399999999999455,0.14397182,1.3040395,0.40929216,3.4002287,-0.70386946,-2.4404066
465,4.649999999999945,-0.04189269,1.1542747,0.117384896,3.7760634,-0.7005097,-2.6019804
466,4.659999999999945,-0.025733208,1.0957956,-0.05329579,3.5253034,-0.50426924,-2.513863
467,4.669999999999945,0.7583979,1.1031132,-0.040673107,3.1236594,-0.22357668,-2.4894285
468,4.679999999999945,0.7583979,1.1031132,-0.040673107,2.6250408,0.10247265,-2.69697
469,4.689999999999944,1.7294303,1.1181141,0.3406906,2.4352143,0.117744274,-3.1410692
470,4.699999999999944,1.958224,1.1008569,0.42898846,2.6743681,-0.25381452,-4.371199
471,4.709999999999944,2.5780163,0.92877364,0.6025351,2.6743681,-0.25381452,-4.371199
472,4.719999999999944,2.9048035,0.81175464,0.7032117,3.3270776,-0.8671232,-5.818033
473,4.729999999999944,2.9048035,0.81175464,0.7032117,3.3270776,-0.8671232,-5.818033
474,4.739999999999943,3.5755136,0.769801,0.778704,3.4185545,-0.8677341,-5.7610703
475,4.749999999999943,3.5755136,0.769801,0.778704,3.4185545,-0.8677341,-5.7610703
476,4.759999999999943,3.5755136,0.769801,0.778704,3.4185545,-0.8677341,-5.7610703
477,4.769999999999943,3.5755136,0.769801,0.778704,3.4185545,-0.8677341,-5.7610703
478,4.7799999999999425,6.1762137,-1.0050586,-0.51155424,1.2287555,-1.3626876,-7.4696603
479,4.789999999999942,5.529286,-1.8888906,0.028355313,-0.30176744,-1.1614076,-7.6466584
480,4.799999999999942,5.053953,-2.1769562,0.46325874,-2.3051,0.012064588,-7.8291545
481,4.809999999999942,3.722412,-2.701621,1.5577128,-1.8399261,0.8660542,-7.653683
482,4.819999999999942,2.6557035,-2.8787045,1.8815733,0.14462234,0.7861836,-7.3484035
483,4.8299999999999415,2.6557035,-2.8787045,1.8815733,0.14462234,0.7861836,-7.3484035
484,4.839999999999941,2.6557035,-2.8787045,1.8815733,0.14462234,0.7861836,-7.3484035
485,4.849999999999941,2.6557035,-2.8787045,1.8815733,0.14462234,0.7861836,-7.3484035
486,4.859999999999941,-0.9093213,-3.3096445,-0.24141651,4.030794,-1.8646661,-4.2007675
487,4.869999999999941,-1.314223,-3.2158582,-0.45856333,3.0460796,-1.422247,-2.947425
488,4.87999999999994,-1.5229547,-3.2029917,-0.6016815,1.6740762,-0.3640757,-1.3921618
489,4.88999999999994,-1.5229547,-3.2029917,-0.6016815,1.6740762,-0.3640757,-1.3921618
490,4.89999999999994,-1.5229547,-3.2029917,-0.6016815,1.6740762,-0.3640757,-1.3921618
491,4.90999999999994,-1.5229547,-3.2029917,-0.6016815,1.6740762,-0.3640757,-1.3921618
492,4.9199999999999395,-1.4436818,-3.2157974,-0.33172667,-2.210874,0.06719518,4.3742533
493,4.929999999999939,-1.3273945,-3.0867653,-0.286846,-2.1536055,-0.38362336,5.426163
494,4.939999999999939,-1.1671413,-2.9892597,-0.28446782,-2.039679,-0.88438016,6.296341
495,4.949999999999939,-1.1671413,-2.9892597,-0.28446782,-2.039679,-0.88438016,6.296341
496,4.959999999999939,-0.12098267,-2.5548441,-0.26324704,-2.0059288,-1.372156,8.039445
497,4.9699999999999385,0.30635932,-2.394408,-0.29361472,-2.1986568,-1.3055718,8.44903
498,4.979999999999938,0.78809476,-2.2168977,-0.27239394,-2.6039658,-1.125672,8.80043
499,4.989999999999938,1.0670135,-2.0942686,-0.25849068,-2.911231,-0.93324935,8.937111
500,4.999999999999938,1.6952819,-1.823521,-0.16921718,-3.6534324,-0.549626,9.04218
501,5.009999999999938,2.142137,-1.5429559,0.120738745,-3.9939897,-0.44180828,9.122814
502,5.019999999999937,2.7654052,-1.2396455,0.4999682,-3.9939897,-0.44180828,9.122814
503,5.029999999999937,3.6283214,-0.7544952,1.0343287,-3.1085405,-1.0645854,9.330356
504,5.039999999999937,5.8946733,0.33056808,1.4393523,-0.43325618,-1.655903,9.074403
505,5.049999999999937,6.6050806,0.92974937,0.9109068,-0.43325618,-1.655903,9.074403
506,5.0599999999999365,6.3267717,1.4309982,0.31178647,0.11530081,-0.5564982,7.4695077
507,5.069999999999936,6.3267717,1.4309982,0.31178647,-1.7707456,2.104736,4.361425
508,5.079999999999936,6.3267717,1.4309982,0.31178647,-1.7707456,2.104736,4.361425
509,5.089999999999936,5.2378054,1.4597802,0.14506944,-2.4437664,2.7267497,3.6352592
510,5.099999999999936,3.9513283,1.4078261,0.8379757,-2.6042712,2.3335052,1.8741345
511,5.1099999999999355,3.9513283,1.4078261,0.8379757,-2.6042712,2.3335052,1.8741345
512,5.119999999999935,3.049873,1.3902031,1.1687877,-0.085673854,0.33582318,0.5158757
513,5.129999999999935,2.6097863,1.3409319,0.94231105,-0.085673854,0.33582318,0.5158757
514,5.139999999999935,2.1356733,1.3191624,0.5450318,1.6357445,0.064446285,-0.42638394
515,5.149999999999935,1.8534617,1.3298947,0.33642206,1.681712,0.25244007,-0.57864213
516,5.159999999999934,1.2815992,1.3238578,0.0037807084,1.4804319,0.91706145,-0.9593639
517,5.169999999999934,1.2815992,1.3238578,0.0037807084,1.4804319,0.91706145,-0.9593639
518,5.179999999999934,0.6025351,1.296844,-0.11915329,1.0016663,1.5004377,-1.3379476
519,5.189999999999934,0.32105532,1.279282,-0.03597771,1.0175488,1.5247196,-1.5630515
520,5.199999999999934,0.08781,1.2581222,0.050612707,1.3665055,1.2263119,-1.7760907
521,5.209999999999933,-0.084883004,1.1921427,0.15592372,2.3231206,0.16752979,-2.0606012
522,5.219999999999933,-0.084883004,1.1921427,0.15592372,2.3231206,0.16752979,-2.0606012
523,5.229999999999933,-0.022501312,1.1550674,0.17751035,2.9234483,-0.47601673,-2.2841778
524,5.239999999999933,0.3822174,1.0962225,0.04969802,3.3102787,-0.8417723,-2.784171
525,5.2499999999999325,0.3822174,1.0962225,0.04969802,3.3102787,-0.8417723,-2.784171
526,5.259999999999932,0.89072275,1.0993325,0.034819108,2.7317894,-0.21395555,-3.3409748
527,5.269999999999932,0.89072275,1.0993325,0.034819108,2.7317894,-0.21395555,-3.3409748
528,5.279999999999932,2.0481074,1.1643972,0.3199577,2.351373,-0.1423316,-4.3774605
529,5.289999999999932,2.0481074,1.1643972,0.3199577,2.351373,-0.1423316,-4.3774605
530,5.299999999999931,2.5480144,1.0220718,0.7238837,3.1164818,-1.3289373,-5.2253413
531,5.309999999999931,3.4646533,1.1570188,0.6139383,3.3499851,-1.64674,-4.9399147
532,5.319999999999931,4.7721686,1.0848805,0.2361723,3.1091514,-1.4272866,-4.9130363
533,5.329999999999931,4.7721686,1.0848805,0.2361723,3.1091514,-1.4272866,-4.9130363
534,5.339999999999931,6.606605,0.27422333,-0.58588785,2.0798435,-0.58169645,-5.529705
535,5.34999999999993,6.811373,-0.5471661,-0.74229944,-0.7716755,0.313832,-7.5724382
536,5.35999999999993,6.4742193,-1.1026863,-0.3699606,-1.8516853,0.06169739,-8.350223
537,5.36999999999993,6.4742193,-1.1026863,-0.3699606,-2.6090055,-0.24923302,-8.918785
538,5.37999999999993,5.8624153,-1.899745,0.115128666,-2.859002,-0.2706133,-9.09899
539,5.3899999999999295,5.8624153,-1.899745,0.115128666,-2.859002,-0.2706133,-9.09899
540,5.399999999999929,2.403128,-3.17671,1.3802634,-2.859002,-0.2706133,-9.09899
541,5.409999999999929,3.1641479,-3.0172493,1.4672807,0.28955013,0.30726522,-8.234921
542,5.419999999999929,1.5025266,-3.3409264,1.0126201,2.4810293,-0.22342396,-6.720281
543,5.429999999999929,1.0187789,-3.37477,0.8093765,2.4810293,-0.22342396,-6.720281
544,5.4399999999999284,1.0187789,-3.37477,0.8093765,2.4810293,-0.22342396,-6.720281
545,5.449999999999928,0.27172315,-3.3730626,0.49484593,2.4810293,-0.22342396,-6.720281
546,5.459999999999928,0.27172315,-3.3730626,0.49484593,2.4810293,-0.22342396,-6.720281
547,5.469999999999928,-1.4445965,-3.4062963,-0.6188776,2.9243646,0.55848354,-1.0797043
548,5.479999999999928,-1.7121731,-3.316657,-0.87017274,2.9243646,0.55848354,-1.0797043
549,5.489999999999927,-1.7121731,-3.316657,-0.87017274,1.1650727,-0.049021937,2.2612705
550,5.499999999999927,-1.7121731,-3.316657,-0.87017274,1.1650727,-0.049021937,2.2612705
551,5.509999999999927,-1.7121731,-3.316657,-0.87017274,1.1650727,-0.049021937,2.2612705
552,5.519999999999927,-1.7121731,-3.316657,-0.87017274,1.1650727,-0.049021937,2.2612705
553,5.5299999999999265,-0.6041206,-2.8294945,-0.48301598,-1.4288138,-0.5009095,6.277862
554,5.539999999999926,-0.20592664,-2.65796,-0.33690992,-1.6705637,-0.7538077,7.077332
555,5.549999999999926,-0.20592664,-2.65796,-0.33690992,-1.6705637,-0.7538077,7.077332
556,5.559999999999926,-0.20592664,-2.65796,-0.33690992,-1.6705637,-0.7538077,7.077332
557,5.569999999999926,0.14793546,-2.535148,-0.26129574,-1.8264871,-0.86009824,7.710494
558,5.5799999999999255,0.88785666,-2.1876886,-0.1753151,-2.247526,-1.0149527,8.672606
559,5.589999999999925,1.2186077,-2.0464609,-0.08890763,-2.361605,-1.0189233,9.742231
560,5.599999999999925,1.4306322,-1.9709076,0.115006715,-2.361605,-1.0189233,9.742231
561,5.609999999999925,3.9496818,-1.372519,0.40185273,-2.031127,-1.3494014,11.673787
562,5.619999999999925,5.9670553,-0.38794947,0.6575384,-2.031127,-1.3494014,11.673787
563,5.629999999999924,6.4764752,0.5819852,1.0585984,-1.6598736,0.09743301,8.951772
564,5.639999999999924,6.4764752,0.5819852,1.0585984,-1.6598736,0.09743301,8.951772
565,5.649999999999924,5.88699,1.6410104,0.986582,-1.1556044,1.6653714,6.5715356
566,5.659999999999924,5.54075,1.9315761,0.92981035,-1.0242683,1.8487836,5.437617
567,5.6699999999999235,5.2860403,2.0011535,0.91615105,-0.8669705,1.8121318,4.8014007
568,5.679999999999923,4.754729,2.1384175,0.8321827,-0.40378192,1.7117971,3.6424367
569,5.689999999999923,4.355742,2.201897,0.7211396,-0.10293079,1.5908458,3.0674598
570,5.699999999999923,3.8237598,2.1812248,0.6093648,0.5421429,1.1099422,2.1045835
571,5.709999999999923,3.0477996,2.0963418,0.25952733,1.2904528,0.410196,1.1713341
572,5.7199999999999225,2.4426425,2.0359726,-0.22141537,1.4025466,0.2602286,0.8472701
573,5.729999999999922,2.4426425,2.0359726,-0.22141537,1.2102767,0.4792238,0.34483343
574,5.739999999999922,2.3154402,2.0635352,-0.33995885,0.7475463,0.9999864,-0.4016439
575,5.749999999999922,1.8840125,2.0396311,-0.42246366,0.42913285,1.2409728,-1.1227703
576,5.759999999999922,1.4002036,1.9028549,-0.36130157,0.26343563,1.2935071,-1.972942
577,5.769999999999921,1.4002036,1.9028549,-0.36130157,0.26343563,1.2935071,-1.972942
578,5.779999999999921,0.48801628,1.574848,-0.14464259,0.8258898,0.79611015,-3.0133982
579,5.789999999999921,0.34581286,1.3805073,-0.1364104,0.8258898,0.79611015,-3.0133982
580,5.799999999999921,0.34581286,1.3805073,-0.1364104,1.5981762,-0.17470746,-3.3018794
581,5.809999999999921,0.38538834,1.2579392,-0.12281204,1.7566957,-0.6133087,-3.4408512
582,5.81999999999992,0.69857734,1.042195,0.07988271,1.8790215,-0.98868537,-3.683212
583,5.82999999999992,0.9960337,0.94542104,0.17372964,1.9384282,-1.0841331,-3.9602394
584,5.83999999999992,0.9960337,0.94542104,0.17372964,1.9384282,-1.0841331,-3.9602394
585,5.84999999999992,1.5838729,0.8410857,0.38703477,1.8176296,-0.79091775,-4.8246136
586,5.8599999999999195,2.0192642,0.79650986,0.55369085,1.8220583,-0.7134906,-5.265353
587,5.869999999999919,2.505512,0.7603492,0.79242426,1.9749273,-0.7108944,-5.8455224
588,5.879999999999919,2.804249,0.6991262,0.8829174,2.1432207,-0.66767573,-6.18837
589,5.889999999999919,3.2364082,0.54375124,0.9973753,2.5247061,-0.6441574,-6.730513
590,5.899999999999919,3.901935,0.29727346,1.1245168,2.7852402,-0.79045963,-6.874983
591,5.909999999999918,4.848942,-0.1255561,1.0397558,3.2223141,-1.0137309,-6.9655437
592,5.919999999999918,5.3431168,-0.5933273,0.58753425,3.2818735,-1.1100949,-7.1862187
593,5.929999999999918,5.4389763,-0.9652392,0.085309856,2.719572,-1.3115277,-7.335728
594,5.939999999999918,5.4389763,-0.9652392,0.085309856,2.719572,-1.3115277,-7.335728
595,5.949999999999918,5.04127,-1.6429616,0.14275223,-1.1119275,-1.0302242,-7.1066537
596,5.959999999999917,4.5352645,-2.2156782,0.7918755,-2.6375635,0.3202461,-6.8966684
597,5.969999999999917,3.8288207,-2.4911819,1.4689271,-2.7811167,1.5144876,-6.7471595
598,5.979999999999917,1.9988972,-2.8768141,2.0542662,-2.1045835,2.15498,-6.602384
599,5.989999999999917,1.9988972,-2.8768141,2.0542662,0.73273283,2.3822217,-6.119343
600,5.9999999999999165,1.9988972,-2.8768141,2.0542662,0.73273283,2.3822217,-6.119343
601,6.009999999999916,-0.44417223,-3.3814168,0.037990022,5.047274,0.6963864,-5.0074153
602,6.019999999999916,-0.44417223,-3.3814168,0.037990022,5.047274,0.6963864,-5.0074153
603,6.029999999999916,-1.0573177,-3.2355547,-0.5518005,5.047274,0.6963864,-5.0074153
604,6.039999999999916,-1.4627682,-3.0503,-1.1141503,3.122285,-0.23304509,0.047800206
605,6.0499999999999154,-1.6179602,-2.9385252,-1.5098442,0.9512699,-0.11301007,2.0277672
606,6.059999999999915,-1.4423403,-2.9175482,-1.390386,-0.527024,-0.1459968,3.2774448
607,6.069999999999915,-1.1315905,-2.9345615,-1.0601228,-1.7426459,-0.106901415,4.331493
608,6.079999999999915,-0.7181517,-2.9235852,-0.58094853,-2.5909848,-0.051923547,5.411044
609,6.089999999999915,-0.45752668,-2.8814485,-0.3936815,-2.7519479,-0.03634648,5.899278
610,6.099999999999914,0.020489,-2.707231,-0.18244967,-2.4524713,-0.31658092,6.5813093
611,6.109999999999914,0.2051949,-2.541002,-0.22897679,-2.1149683,-0.68279463,6.739065
612,6.119999999999914,0.40709692,-2.365382,-0.39819396,-1.877647,-1.1876748,6.840469
613,6.129999999999914,0.40709692,-2.365382,-0.39819396,-1.877647,-1.1876748,6.840469
614,6.1399999999999135,0.40709692,-2.365382,-0.39819396,-1.877647,-1.1876748,6.840469
615,6.149999999999913,0.40709692,-2.365382,-0.39819396,-1.877647,-1.1876748,6.840469
616,6.159999999999913,1.1016496,-2.022557,-0.5996082,-3.516293,-1.2670872,7.8960443
617,6.169999999999913,2.0581079,-1.920417,-0.076711796,-4.847979,-1.1626292,9.040958
618,6.179999999999913,2.0581079,-1.920417,-0.076711796,-4.847979,-1.1626292,9.040958
619,6.1899999999999125,2.0581079,-1.920417,-0.076711796,-4.847979,-1.1626292,9.040958
620,6.199999999999912,2.0581079,-1.920417,-0.076711796,-4.847979,-1.1626292,9.040958
621,6.209999999999912,3.269581,-1.741626,0.43514732,-4.8068986,-1.7695239,9.51224
622,6.219999999999912,5.0563927,-0.95237267,1.4623414,-3.7659843,-2.1213822,8.991784
623,6.229999999999912,6.240242,0.7915706,1.8099836,-1.2185235,0.59528816,7.811134
624,6.239999999999911,6.351712,1.3837392,1.618631,-1.2185235,0.59528816,7.811134
625,6.249999999999911,6.351712,1.3837392,1.618631,-1.2185235,0.59528816,7.811134
626,6.259999999999911,6.351712,1.3837392,1.618631,-1.2185235,0.59528816,7.811134
627,6.269999999999911,6.351712,1.3837392,1.618631,-1.2185235,0.59528816,7.811134
628,6.2799999999999105,3.747536,1.8680358,-0.079029,2.0975585,0.37400225,2.0819814
629,6.28999999999991,2.9055965,1.9979824,-0.63442725,1.4022411,0.16325374,1.2183707
630,6.29999999999991,2.4384959,2.0619495,-0.76120293,0.46868637,0.536187,0.75823647
631,6.30999999999991,1.987372,2.0652423,-0.68680835,-0.68707067,1.1992812,0.2209805
632,6.31999999999991,1.4277052,2.0618277,-0.37660733,-1.2866349,1.502423,-0.28924468
633,6.3299999999999095,0.97908145,2.0596323,-0.05652769,-1.2933544,1.438435,-0.5349652
634,6.339999999999909,0.57771665,1.9854207,0.17464434,-0.4034765,0.9660834,-1.0497719
635,6.349999999999909,0.33270234,1.9337105,0.2177566,-0.4034765,0.9660834,-1.0497719
636,6.359999999999909,0.19397473,1.887732,0.27593073,0.007330383,0.7266242,-1.2308935
637,6.369999999999909,0.06366225,1.843888,0.37355837,0.63132924,0.39935315,-1.5008959
638,6.379999999999908,-0.07799236,1.7043067,0.43429363,1.347416,0.20448714,-1.7867808
639,6.389999999999908,0.14037405,1.6519867,0.4200855,1.6972891,0.071013086,-1.9491183
640,6.399999999999908,0.41173133,1.598264,0.3167258,1.8571831,0.039858956,-2.228131
641,6.409999999999908,0.8052909,1.5033194,0.20586567,1.7892243,0.20204368,-2.767525
642,6.419999999999908,0.8052909,1.5033194,0.20586567,1.7892243,0.20204368,-2.767525
643,6.429999999999907,1.302576,1.2581222,0.4414282,1.5548048,0.65408397,-3.9025126
644,6.439999999999907,1.5108198,1.0650011,0.5960104,1.6571246,0.52106804,-4.2499423
645,6.449999999999907,1.9538335,0.9020039,0.8977353,2.0589213,0.14844026,-4.6019535
646,6.459999999999907,2.599054,0.7542513,1.1492134,2.9277244,-0.5279403,-5.0156617
647,6.4699999999999065,3.3236694,0.6265,1.2452556,3.5643988,-1.0503827,-5.3117785
648,6.479999999999906,4.3540344,0.43472052,1.1668364,4.4525967,-1.7886134,-5.626069
649,6.489999999999906,5.923394,0.21617115,0.52149385,4.4642034,-2.1365013,-5.6709676
650,6.499999999999906,7.2084694,-0.122202255,-0.13830076,4.4642034,-2.1365013,-5.6709676
651,6.509999999999906,7.2084694,-0.122202255,-0.13830076,4.4642034,-2.1365013,-5.6709676
652,6.519999999999905,7.2084694,-0.122202255,-0.13830076,4.4642034,-2.1365013,-5.6709676
653,6.529999999999905,6.079379,-2.962673,1.3418466,-3.7850738,1.9019289,-8.595027
654,6.539999999999905,6.079379,-2.962673,1.3418466,-3.8476875,3.1341968,-8.721628
655,6.549999999999905,4.5121536,-3.2566533,2.1791515,2.1088595,2.8788552,-7.8865757
656,6.559999999999905,3.7336934,-3.3661718,2.051827,2.1088595,2.8788552,-7.8865757
657,6.569999999999904,2.8258357,-3.5586224,1.2483655,4.57645,1.430341,-7.5298305
658,6.579999999999904,1.337578,-3.6787512,-0.050124876,6.2615213,0.030695979,-7.0791645
659,6.589999999999904,0.2689791,-3.6574087,-0.89096665,5.9513545,-0.79305583,-5.756489
660,6.599999999999904,0.2689791,-3.6574087,-0.89096665,5.9513545,-0.79305583,-5.756489
661,6.6099999999999035,0.2689791,-3.6574087,-0.89096665,5.9513545,-0.79305583,-5.756489
662,6.619999999999903,-1.399594,-3.5064242,-1.0674403,2.194228,0.14172074,-3.2259793
663,6.629999999999903,-1.6908302,-3.6338098,-1.1672632,1.1980594,0.7108944,-2.0357084
664,6.639999999999903,-2.3169644,-3.6221626,-1.346664,0.004276057,0.14523321,0.052381694
665,6.649999999999903,-2.3500152,-3.6839952,-1.2662934,-0.6401868,-0.38896844,1.3765849
666,6.659999999999902,-2.2090313,-3.7076554,-1.1671413,-1.2087497,-0.7163922,2.6772697
667,6.669999999999902,-1.9469428,-3.5915508,-1.0202425,-1.8164078,-1.057255,4.1636577
668,6.679999999999902,-1.6701584,-3.5343525,-0.90169895,-2.111914,-1.336115,4.987562
669,6.689999999999902,-1.0637206,-3.2350667,-0.69217455,-2.5248587,-1.9344575,6.4198885
670,6.699999999999902,-0.7127245,-3.0965831,-0.5836316,-2.7479773,-2.2154555,7.2185946
671,6.709999999999901,0.6383299,-2.5647228,-0.24818522,-3.0101912,-2.2939517,7.9548397
672,6.719999999999901,1.1304318,-2.3343434,-0.16665606,-3.467882,-1.883603,8.391914
673,6.729999999999901,1.4373399,-2.0789626,-0.004451479,-3.9477167,-1.227381,8.507367
674,6.739999999999901,1.4373399,-2.0789626,-0.004451479,-3.9477167,-1.227381,8.507367
675,6.7499999999999005,1.6614385,-1.9243196,0.36038688,-4.04515,-1.1722504,8.97865
676,6.7599999999999,2.2551315,-1.6604627,0.79632694,-3.4866662,-1.5761851,9.935723
677,6.7699999999999,4.738935,-0.74028707,1.4974654,-2.588236,-2.0554087,10.458319
678,6.7799999999999,7.045411,0.53692156,1.7207712,-1.8165605,-2.2737932,10.551017
679,6.7899999999999,7.778442,1.428681,1.1918379,-0.48731774,0.50426924,7.5507526
680,6.7999999999998995,6.7971044,1.7299181,1.1256754,-1.0398453,1.9037615,5.53505
681,6.809999999999899,5.360191,1.6114964,1.1453718,-1.2895365,2.869234,4.2255077
682,6.819999999999899,5.360191,1.6114964,1.1453718,-1.2895365,2.869234,4.2255077
683,6.829999999999899,5.360191,1.6114964,1.1453718,-1.2895365,2.869234,4.2255077
684,6.839999999999899,5.360191,1.6114964,1.1453718,-1.2895365,2.869234,4.2255077
685,6.849999999999898,2.8415682,1.7894336,0.40063316,-0.010842858,0.8584184,1.8868101
686,6.859999999999898,2.8415682,1.7894336,0.40063316,-0.010842858,0.8584184,1.8868101
687,6.869999999999898,2.3705041,1.847425,0.38837633,0.021380283,0.9251554,1.5367843
688,6.879999999999898,2.3705041,1.847425,0.38837633,0.021380283,0.9251554,1.5367843
689,6.8899999999998975,1.9241368,1.9373691,0.26922303,0.21700987,1.3720033,0.8034405
690,6.899999999999897,1.9241368,1.9373691,0.26922303,0.21700987,1.3720033,0.8034405
691,6.909999999999897,1.0645133,1.9760909,0.025733208,0.80680025,1.2056953,-0.945314
692,6.919999999999897,0.10482319,1.7491874,0.10714039,1.281748,0.93187493,-1.5699236
693,6.929999999999897,0.10482319,1.7491874,0.10714039,1.7314975,0.8503244,-1.7038559
694,6.9399999999998965,-0.07207738,1.6872936,0.14171559,1.7314975,0.8503244,-1.7038559
695,6.949999999999896,-0.07207738,1.6872936,0.14171559,1.7314975,0.8503244,-1.7038559
696,6.959999999999896,-0.07207738,1.6872936,0.14171559,1.7314975,0.8503244,-1.7038559
697,6.969999999999896,0.25367334,1.3977646,0.104152426,3.2844696,-0.19272798,-2.1618521
698,6.979999999999896,0.25367334,1.3977646,0.104152426,3.2844696,-0.19272798,-2.1618521
699,6.989999999999895,0.25367334,1.3977646,0.104152426,3.2844696,-0.19272798,-2.1618521
700,6.999999999999895,0.8084008,1.2580001,0.17787623,3.329063,-0.5375614,-3.4741433
701,7.009999999999895,1.258976,1.1132967,0.051466417,2.9654453,-0.3193298,-3.7745364
702,7.019999999999895,1.6907084,1.103662,0.16897328,2.2269092,-0.15607607,-4.0269766
703,7.0299999999998946,2.0625594,1.0930516,0.38191253,2.042428,-0.1049161,-4.160603
704,7.039999999999894,2.8994985,0.97200793,0.9994486,2.0409007,-0.20815234,-4.607909
705,7.049999999999894,2.8994985,0.97200793,0.9994486,2.0409007,-0.20815234,-4.607909
706,7.059999999999894,3.676007,0.845781,1.4639269,4.234976,-1.8616118,-5.398369
707,7.069999999999894,5.9667506,0.22257397,1.3605062,4.234976,-1.8616118,-5.398369
708,7.0799999999998935,6.5208073,-0.75455624,-0.26611307,1.34314,-2.2892175,-7.18011
709,7.089999999999893,6.5208073,-0.75455624,-0.26611307,1.34314,-2.2892175,-7.18011
710,7.099999999999893,5.2707953,-2.197994,0.9271883,-1.637577,-1.2232577,-7.4699655
711,7.109999999999893,5.2707953,-2.197994,0.9271883,-3.5204165,1.4124732,-7.349625
712,7.119999999999893,3.6482005,-2.8797412,2.520635,-3.5204165,1.4124732,-7.349625
713,7.129999999999892,3.6482005,-2.8797412,2.520635,1.055117,1.370629,-6.507089
714,7.139999999999892,2.098659,-3.1551843,1.9919456,2.845105,0.8000808,-6.2315893
715,7.149999999999892,2.098659,-3.1551843,1.9919456,2.845105,0.8000808,-6.2315893
716,7.159999999999892,0.5565569,-3.368489,0.1750712,5.1761665,-0.52580225,-5.729458
717,7.169999999999892,-0.25897855,-3.254641,-0.43337893,5.193729,-1.2993103,-4.8085785
718,7.179999999999891,-1.0756725,-3.1514034,-0.71918833,5.193729,-1.2993103,-4.8085785
719,7.189999999999891,-1.5975932,-3.0467021,-0.94206715,2.351373,-0.19746219,-1.387275
720,7.199999999999891,-1.7670544,-3.052983,-1.0542688,1.6096299,-0.08093964,-0.38072178
721,7.209999999999891,-1.7670544,-3.052983,-1.0542688,1.6096299,-0.08093964,-0.38072178
722,7.2199999999998905,-1.7670544,-3.052983,-1.0542688,1.6096299,-0.08093964,-0.38072178
723,7.22999999999989,-1.4442916,-2.9491963,-0.7755331,-1.325883,-0.7275405,3.0276008
724,7.23999999999989,-1.3033687,-2.8439465,-0.59607136,-1.7201965,-0.78877974,3.6946657
725,7.24999999999989,-1.1375054,-2.7137558,-0.4425258,-1.9651535,-1.1215485,4.969236
726,7.25999999999989,-1.0475612,-2.6077132,-0.38349798,-1.9651535,-1.1215485,4.969236
727,7.269999999999889,-0.9213342,-2.488438,-0.3530084,-2.0140228,-1.3246613,5.6083536
728,7.279999999999889,-0.52332324,-2.3049517,-0.289834,-2.2192733,-1.4048374,6.6631656
729,7.289999999999889,0.007378479,-2.137259,-0.23251356,-2.3246477,-1.3475688,7.018231
730,7.299999999999889,0.007378479,-2.137259,-0.23251356,-2.713158,-1.0958922,7.9603376
731,7.309999999999889,1.2170222,-1.7842505,-0.38355896,-3.1659617,-0.70386946,8.4342165
732,7.319999999999888,1.2170222,-1.7842505,-0.38355896,-3.4174857,-0.6249151,8.385805
733,7.329999999999888,2.036704,-1.4456332,-0.17000991,-3.7391062,-1.7615826,8.724988
734,7.339999999999888,3.0893877,-1.2330598,0.115250625,-3.6138787,-2.2093468,9.0701275
735,7.349999999999888,4.070969,-0.8560255,0.5950957,-3.3064609,-2.4266622,9.3628845
736,7.3599999999998875,5.4437323,-0.2754429,1.0207913,-3.3064609,-2.4266622,9.3628845
737,7.369999999999887,6.728502,0.65973365,0.9626781,-2.8316658,-2.1184807,9.457568
738,7.379999999999887,6.4564743,1.2107414,0.980484,-2.9791899,1.054048,6.248235
739,7.389999999999887,5.705699,1.2903192,1.0933565,-3.1945198,2.346486,4.7429104
740,7.399999999999887,5.203718,1.2685496,1.1992164,-2.9765937,2.7102563,3.8594465
741,7.4099999999998865,3.7573533,1.1731782,1.1283585,-1.3164146,2.2316434,2.549446
742,7.419999999999886,3.7573533,1.1731782,1.1283585,-1.3164146,2.2316434,2.549446
743,7.429999999999886,3.2351277,1.2507437,0.86809945,-0.08964448,1.0995574,1.8584048
744,7.439999999999886,2.3464174,1.3557498,0.3035543,0.42546764,0.5859725,1.5958854
745,7.449999999999886,2.3464174,1.3557498,0.3035543,0.7698429,0.1994475,1.2411255
746,7.459999999999885,1.5972273,1.4923432,-0.021891521,0.08506299,0.6693556,0.83367836
747,7.469999999999885,1.5972273,1.4923432,-0.021891521,0.08506299,0.6693556,0.83367836
748,7.479999999999885,1.3895323,1.5413705,0.00219525,-0.21609358,0.8784242,0.7367035
749,7.489999999999885,1.1043327,1.5921661,0.12494631,-0.40378192,0.839787,0.20708331
750,7.4999999999998845,0.8966987,1.6255826,0.29983455,-0.40378192,0.839787,0.20708331
751,7.509999999999884,0.8579769,1.6458278,0.46051466,-0.02565634,0.6096435,-0.25686884
752,7.519999999999884,0.8579769,1.6458278,0.46051466,-0.02565634,0.6096435,-0.25686884
753,7.529999999999884,0.81242543,1.642108,0.58680254,0.42302418,0.65301496,-0.77656245
754,7.539999999999884,0.81242543,1.642108,0.58680254,0.42302418,0.65301496,-0.77656245
755,7.5499999999998835,0.35489875,1.3442857,0.40118194,2.9159653,0.10720685,-2.395508
756,7.559999999999883,0.49569967,1.2648909,0.3017249,3.2786665,-0.16676621,-2.67223
757,7.569999999999883,0.49569967,1.2648909,0.3017249,3.2786665,-0.16676621,-2.67223
758,7.579999999999883,0.49569967,1.2648909,0.3017249,3.2786665,-0.16676621,-2.67223
759,7.589999999999883,0.49569967,1.2648909,0.3017249,3.2786665,-0.16676621,-2.67223
760,7.599999999999882,1.089088,1.1987895,0.12817821,3.3377676,-0.27672195,-2.9808698
761,7.609999999999882,1.8337655,0.7935219,0.43301308,1.7811303,0.86467975,-5.153412
762,7.619999999999882,2.0103002,0.68772304,0.68607664,1.8142698,0.8559749,-5.3635497
763,7.629999999999882,2.6974745,0.48801628,1.2134244,1.8142698,0.8559749,-5.3635497
764,7.6399999999998816,2.6974745,0.48801628,1.2134244,1.8142698,0.8559749,-5.3635497
765,7.649999999999881,2.6974745,0.48801628,1.2134244,1.8142698,0.8559749,-5.3635497
766,7.659999999999881,3.36916,0.45179462,1.5285648,2.6177104,0.19929479,-5.531996
767,7.669999999999881,6.5175147,-0.69150376,-0.80827886,2.795014,-1.728596,-7.3299246
768,7.679999999999881,5.963214,-1.4388034,-0.6950405,2.795014,-1.728596,-7.3299246
769,7.6899999999998805,5.278845,-2.0428631,-0.080919355,-0.4335616,-1.1223122,-7.7894483
770,7.69999999999988,4.2612243,-2.6418004,0.957129,-3.867846,1.4902058,-7.727751
771,7.70999999999988,4.2612243,-2.6418004,0.957129,-3.867846,1.4902058,-7.727751
772,7.71999999999988,2.2498875,-2.964929,2.0612788,-0.26313022,1.7789923,-6.997767
773,7.72999999999988,2.2498875,-2.964929,2.0612788,2.8053987,0.09682214,-6.272975
774,7.739999999999879,0.82614577,-3.2392132,1.0343287,4.4851255,-1.2232577,-5.6489763
775,7.749999999999879,0.058783915,-3.277264,0.2333063,5.1595206,-2.0027218,-4.9356384
776,7.759999999999879,-0.43191543,-3.2476287,-0.19738956,4.965571,-1.9428569,-4.12105
777,7.769999999999879,-0.8081569,-3.1857345,-0.53576297,3.9060252,-0.8724683,-3.0164526
778,7.779999999999879,-1.5290526,-3.4346519,-1.2319012,3.503465,-0.547488,-2.685211
779,7.789999999999878,-1.8923664,-3.4232485,-1.2220225,2.0570886,-0.26893342,-1.4378241
780,7.799999999999878,-1.8923664,-3.4232485,-1.2220225,0.61285055,-0.3578143,-0.100792766
781,7.809999999999878,-2.0042632,-3.5112417,-1.0929296,-0.41218132,-0.35735616,1.1160508
782,7.819999999999878,-2.0042632,-3.5112417,-1.0929296,-0.41218132,-0.35735616,1.1160508
783,7.8299999999998775,-1.9294419,-3.5806968,-0.8759658,-1.4333953,-0.40515637,2.7663033
784,7.839999999999877,-1.273123,-3.4048936,-0.5109445,-2.6028967,-0.7713701,6.715547
785,7.849999999999877,-0.22952558,-3.0037117,-0.35727695,-2.6028967,-0.7713701,6.715547
786,7.859999999999877,-0.22952558,-3.0037117,-0.35727695,-2.6791022,-1.0073168,7.4916515
787,7.869999999999877,1.0565251,-2.4844744,-0.34197116,-2.8417451,-1.4414892,8.403826
788,7.879999999999876,1.4950873,-2.1167698,-0.3533133,-3.1274774,-1.3652838,8.371144
789,7.889999999999876,1.6714389,-1.9506016,-0.24196534,-3.387095,-1.4071281,8.410088
790,7.899999999999876,1.6714389,-1.9506016,-0.24196534,-3.3472362,-1.785559,8.997892
791,7.909999999999876,2.3319044,-1.5353944,0.44856274,-2.853657,-2.2412646,9.818895
792,7.919999999999876,3.368916,-1.1507988,0.7373601,-2.2957842,-2.4260514,10.393261
793,7.929999999999875,5.992057,0.026586918,0.69510156,-1.4894422,-1.4321736,10.479852
794,7.939999999999875,6.73771,0.7996808,0.38508344,-2.0314324,0.06505715,9.2665205
795,7.949999999999875,6.73771,0.7996808,0.38508344,-2.0314324,0.06505715,9.2665205
796,7.959999999999875,5.90193,1.4159362,0.9909115,-4.022242,2.5305092,6.301533
797,7.9699999999998745,5.3231153,1.4717932,1.7232103,-1.9515617,1.563815,4.1642685
798,7.979999999999874,4.8359528,1.5013071,2.125856,-1.9515617,1.563815,4.1642685
799,7.989999999999874,4.246833,1.4326446,1.9029769,0.8405506,0.10522154,3.0831897
800,7.999999999999874,3.304461,1.4641708,0.6582701,1.8435913,-0.33826664,2.6557367
801,8.009999999999874,2.9641974,1.4583777,0.27141827,2.5792258,-0.17165314,1.6957619
802,8.019999999999873,2.2840967,1.472403,-0.27062553,1.6985108,0.6569856,1.2402092
803,8.029999999999873,1.8300457,1.5290526,-0.42307347,0.8060367,1.3687963,1.0456486
804,8.039999999999873,1.8300457,1.5290526,-0.42307347,-0.19853121,2.2030854,0.81214535
805,8.049999999999873,1.3534936,1.641803,-0.3614845,-0.19853121,2.2030854,0.81214535
806,8.059999999999873,0.86657494,1.756383,-0.035428897,-0.59238654,2.6438248,0.13622294
807,8.069999999999872,0.6015595,1.8428514,0.096347086,0.03313944,2.2499695,-0.51159966
808,8.079999999999872,0.41051176,1.8463882,0.042258564,1.0383182,1.5291485,-1.1580478
809,8.089999999999872,0.17086363,1.7631516,-0.22373258,1.7531832,0.8029824,-1.5688547
810,8.099999999999872,0.06726002,1.6888181,-0.39977944,2.2573,-0.24419338,-1.9773707
811,8.109999999999872,-0.01603752,1.691684,-0.4074628,2.378251,-0.9578367,-2.2537873
812,8.119999999999871,-0.0013415418,1.6204604,-0.32117727,2.1616993,-1.3196217,-2.4555256
813,8.129999999999871,-0.0013415418,1.6204604,-0.32117727,1.7545577,-1.2001975,-2.5222626
814,8.139999999999871,0.40264544,1.5528955,0.026769854,1.1200215,-0.7492262,-2.7128525
815,8.14999999999987,0.93023723,1.4891113,0.39441326,0.7722864,-0.11377365,-3.1482468
816,8.15999999999987,1.2511096,1.4325225,0.66198987,0.8228355,0.3031419,-3.7282634
817,8.16999999999987,1.9726762,1.1734221,1.1465304,1.732872,0.15943582,-4.7789516
818,8.17999999999987,2.5649056,1.0190228,1.3883127,2.5476136,-0.13912456,-5.446627
819,8.18999999999987,2.9332807,0.8340121,1.5082587,2.5476136,-0.13912456,-5.446627
820,8.19999999999987,2.9332807,0.8340121,1.5082587,3.3104315,-0.3755294,-5.924171
821,8.20999999999987,2.9332807,0.8340121,1.5082587,3.3104315,-0.3755294,-5.924171
822,8.21999999999987,2.9332807,0.8340121,1.5082587,3.3104315,-0.3755294,-5.924171
823,8.229999999999869,2.9332807,0.8340121,1.5082587,3.9999456,-0.72295904,-6.057798
824,8.239999999999869,7.4570813,-0.5247867,-0.71351725,3.3050864,-1.1455251,-6.5032716
825,8.249999999999869,7.1124883,-1.2637322,-0.44392833,-1.377043,-0.6417139,-8.142376
826,8.259999999999868,7.1124883,-1.2637322,-0.44392833,-1.377043,-0.6417139,-8.142376
827,8.269999999999868,7.1124883,-1.2637322,-0.44392833,-1.377043,-0.6417139,-8.142376
828,8.279999999999868,7.1124883,-1.2637322,-0.44392833,-3.8466184,1.1079569,-8.748659
829,8.289999999999868,3.4576406,-3.1101816,2.6097255,1.5662584,1.4366024,-7.693237
830,8.299999999999867,1.8539495,-3.483496,1.6002764,4.5625525,0.20082195,-6.9156055
831,8.309999999999867,1.1627508,-3.529596,0.58905876,5.878814,-0.79168135,-6.1410284
832,8.319999999999867,0.84883,-3.4659948,0.054454394,5.878814,-0.79168135,-6.1410284
833,8.329999999999867,0.84883,-3.4659948,0.054454394,5.878814,-0.79168135,-6.1410284
834,8.339999999999867,0.84883,-3.4659948,0.054454394,5.878814,-0.79168135,-6.1410284
835,8.349999999999866,0.84883,-3.4659948,0.054454394,5.878814,-0.79168135,-6.1410284
836,8.359999999999866,-1.3593476,-3.2241514,-0.9715811,2.394439,0.4454735,-3.2821789
837,8.369999999999866,-1.718027,-3.3254378,-0.86578226,0.79717916,-0.10125092,-0.7173085
838,8.379999999999866,-1.718027,-3.3254378,-0.86578226,-0.4082107,-0.8680395,2.3599253
839,8.389999999999866,-1.5592983,-3.3841,-0.76205665,-0.4082107,-0.8680395,2.3599253
840,8.399999999999865,-1.2855629,-3.2862282,-0.7059558,-0.8028296,-0.88346386,3.4365752
841,8.409999999999865,-0.95523864,-3.1143892,-0.64436686,-1.2325734,-0.9224065,4.483598
842,8.419999999999865,-0.60521823,-2.8147376,-0.58168024,-1.2325734,-0.9224065,4.483598
843,8.429999999999865,-0.60521823,-2.8147376,-0.58168024,-1.2325734,-0.9224065,4.483598
844,8.439999999999864,-0.09281029,-2.4915478,-0.4874065,-2.1444426,-1.2395983,6.6555295
845,8.449999999999864,0.7907169,-2.0325575,-0.4003892,-2.791807,-1.4485142,7.642077
846,8.459999999999864,1.0520736,-1.826692,-0.38422972,-3.1070135,-1.4133894,7.8797035
847,8.469999999999864,1.4294736,-1.6093012,-0.32953143,-3.4125986,-1.4075862,8.165283
848,8.479999999999864,1.943528,-1.3661163,-0.2595883,-3.755905,-1.4946345,8.541423
849,8.489999999999863,3.6266139,-0.60119367,0.6664413,-3.4564283,-2.4043655,9.401063
850,8.499999999999863,3.6266139,-0.60119367,0.6664413,-3.4564283,-2.4043655,9.401063
851,8.509999999999863,4.45465,-0.16994894,1.0173764,-2.7592783,-2.375655,9.341657
852,8.519999999999863,5.822901,1.0326823,1.3778853,-1.870622,-1.2275337,8.606022
853,8.529999999999863,6.1415777,1.7515045,1.3537375,-1.5373951,0.039858956,7.5790052
854,8.539999999999862,5.132251,2.4423985,1.2698302,-0.6290385,1.3788756,4.6798387
855,8.549999999999862,5.132251,2.4423985,1.2698302,-0.6290385,1.3788756,4.6798387
856,8.559999999999862,3.694484,2.1695778,0.72516423,-0.23747386,1.297325,4.034307
857,8.569999999999862,3.214334,2.1153674,0.4110606,0.30268374,1.1705705,2.9320004
858,8.579999999999862,3.214334,2.1153674,0.4110606,-0.026419923,1.2673926,2.7585146
859,8.589999999999861,2.2727544,1.9592607,-0.10031073,-0.4822781,1.3826935,2.624277
860,8.599999999999861,1.8710848,1.8198012,-0.1167751,-0.93462384,1.4480561,2.6015224
861,8.60999999999986,1.8710848,1.8198012,-0.1167751,-0.93462384,1.4480561,2.6015224
862,8.61999999999986,1.4691101,1.7049165,0.23635526,-0.86284715,1.1172725,2.28036
863,8.62999999999986,1.6022886,1.8141912,0.31044495,-0.26908615,0.9624182,1.5164729
864,8.63999999999986,1.5647864,1.9471868,0.2250741,0.07284568,1.0048733,0.81016004
865,8.64999999999986,1.0961006,1.920417,0.072565205,0.49602258,1.0349585,-0.3801109
866,8.65999999999986,0.63009775,1.7836406,-0.046405144,0.6469063,1.0848967,-1.0852021
867,8.66999999999986,0.2596493,1.6588163,-0.11433593,0.62796944,1.1685852,-1.3180945
868,8.67999999999986,0.10384752,1.5647255,-0.12500729,0.56382865,1.2974777,-1.4132367
869,8.68999999999986,0.10384752,1.5647255,-0.12500729,0.56382865,1.2974777,-1.4132367
870,8.699999999999859,0.07939488,1.4387425,0.0064028124,0.61453044,1.0780244,-1.4083499
871,8.709999999999859,0.28013828,1.3841052,0.19623096,1.0531317,0.15057829,-1.4691309
872,8.719999999999859,0.5193596,1.3797756,0.3565452,1.2921327,-0.2678644,-1.5551102
873,8.729999999999858,2.0943904,1.2882459,0.5450318,2.196824,-1.0155635,-2.5679247
874,8.739999999999858,2.0943904,1.2882459,0.5450318,2.4755313,-0.6582073,-3.7713294
875,8.749999999999858,2.0475585,1.0089004,0.47100312,2.4182627,0.038789943,-5.149747
876,8.759999999999858,1.7734572,0.50307816,0.6952235,2.4061983,0.5664248,-5.6645536
877,8.769999999999857,2.2083607,0.46094155,0.85407424,2.616183,0.49846604,-5.447696
878,8.779999999999857,3.1691482,0.5026513,1.0707942,2.616183,0.49846604,-5.447696
879,8.789999999999857,4.3544617,0.5224695,1.1715927,2.616183,0.49846604,-5.447696
880,8.799999999999857,5.661062,0.45209953,1.0320724,3.8276815,-0.34284812,-5.816964
881,8.809999999999857,6.4618406,0.2133661,0.58881485,3.6538904,-0.6772968,-6.654766
882,8.819999999999856,6.4618406,0.2133661,0.58881485,2.661998,-0.92149025,-7.434383
883,8.829999999999856,6.2918916,-0.9711542,-0.19751152,0.54153204,-0.7881689,-8.01837
884,8.839999999999856,5.6629524,-1.8090079,0.2206836,-1.587486,0.02687807,-8.243168
885,8.849999999999856,4.857113,-2.2917192,0.9202976,-2.579073,0.9837985,-8.138252
886,8.859999999999856,4.2196975,-2.52283,1.4908187,-2.4422393,1.237613,-7.9818707
887,8.869999999999855,2.99426,-2.7946754,2.051522,0.15943582,1.2954924,-7.209737
888,8.879999999999855,2.055059,-2.930293,1.6788175,2.1051943,0.81306165,-6.6511006
889,8.889999999999855,1.4061795,-3.0404823,1.1142114,2.1051943,0.81306165,-6.6511006
890,8.899999999999855,1.4061795,-3.0404823,1.1142114,2.1051943,0.81306165,-6.6511006
891,8.909999999999854,1.4061795,-3.0404823,1.1142114,3.8973203,0.113926366,-5.9383736
892,8.919999999999854,1.4061795,-3.0404823,1.1142114,3.8973203,0.113926366,-5.9383736
893,8.929999999999854,-0.5397876,-3.336414,-0.6223534,2.5474608,0.54367006,-2.7690523
894,8.939999999999854,-2.1315877,-3.5228276,-1.1198823,0.9112582,0.7290677,-0.16462818
895,8.949999999999854,-2.1315877,-3.5228276,-1.1198823,0.9112582,0.7290677,-0.16462818
896,8.959999999999853,-2.1315877,-3.5228276,-1.1198823,0.9112582,0.7290677,-0.16462818
897,8.969999999999853,-2.1315877,-3.5228276,-1.1198823,0.9112582,0.7290677,-0.16462818
898,8.979999999999853,-2.1315877,-3.5228276,-1.1198823,0.9112582,0.7290677,-0.16462818
899,8.989999999999853,-0.55814236,-2.8182132,-0.55533725,-1.6783522,-0.24862215,6.307031
900,8.999999999999853,-0.1911087,-2.628385,-0.5714967,-1.6783522,-0.24862215,6.307031
901,9.009999999999852,0.32593364,-2.3400145,-0.53673863,-1.7614299,-0.77381355,7.1417785
902,9.019999999999852,0.32593364,-2.3400145,-0.53673863,-1.7614299,-0.77381355,7.1417785
903,9.029999999999852,0.32593364,-2.3400145,-0.53673863,-1.7614299,-0.77381355,7.1417785
904,9.039999999999852,0.32593364,-2.3400145,-0.53673863,-1.7614299,-0.77381355,7.1417785
905,9.049999999999851,0.32593364,-2.3400145,-0.53673863,-1.7614299,-0.77381355,7.1417785
906,9.059999999999851,1.3357487,-1.5438095,-0.406792,-1.7614299,-0.77381355,7.1417785
907,9.069999999999851,1.926271,-1.1657997,-0.09878625,-2.9681942,-1.9307923,8.27417
908,9.07999999999985,2.9896255,-0.8629162,0.3708753,-3.008053,-1.9017762,8.974833
909,9.08999999999985,4.5739255,-0.25836873,0.8866371,-2.578615,-1.7030923,9.415877
910,9.09999999999985,6.7627726,1.4452672,1.317394,-2.0602958,-0.9363037,9.00736
911,9.10999999999985,6.7627726,1.4452672,1.317394,-1.5453364,0.46181414,7.3349643
912,9.11999999999985,6.583067,1.7644932,1.358006,-1.3807082,0.838718,6.55153
913,9.12999999999985,4.683322,2.1468327,0.997985,-0.32650748,1.7333301,3.8140898
914,9.13999999999985,4.0978003,2.0559127,0.81730384,-0.003970624,1.8089247,3.2407928
915,9.14999999999985,3.500814,2.0038364,0.48990667,0.27855456,1.8025106,2.688418
916,9.15999999999985,2.9435256,1.9624317,0.18805976,0.40546182,1.6852245,2.1038198
917,9.169999999999849,2.4931333,1.97292,0.084456146,0.4802928,1.5340353,1.8480201
918,9.179999999999849,2.4931333,1.97292,0.084456146,0.4802928,1.5340353,1.8480201
919,9.189999999999849,1.9486504,1.9942628,0.023172084,0.7680103,1.1435398,1.5625933
920,9.199999999999848,1.3393465,2.0997567,-0.2361723,1.3828462,0.6974554,1.1157454
921,9.209999999999848,1.1653728,2.142442,-0.4182561,1.5262468,0.60154957,0.8197812
922,9.219999999999848,1.2083632,2.1611626,-0.5875953,1.4624114,0.56001073,0.2677117
923,9.229999999999848,1.115187,2.1358564,-0.7095536,1.1803443,0.6200282,-0.8034405
924,9.239999999999847,0.95560455,2.0540223,-0.68924755,1.0554224,0.5670357,-1.3472633
925,9.249999999999847,0.6508306,1.9252343,-0.602962,0.9859365,0.32650748,-1.9252945
926,9.259999999999847,0.44246486,1.8102275,-0.5052124,1.0005972,0.07345655,-2.2043073
927,9.269999999999847,0.23056222,1.6130209,-0.35093513,1.0688615,-0.47342056,-2.4830146
928,9.279999999999847,0.34355664,1.4914895,-0.17336378,1.1001683,-0.8775079,-2.6916249
929,9.289999999999846,0.5741799,1.3949594,-0.020245085,1.2858714,-1.0873401,-3.3906076
930,9.299999999999846,0.93889624,1.2583661,0.14836231,1.3761266,-1.0202976,-3.813479
931,9.309999999999846,1.1255535,1.1568967,0.20848778,1.3761266,-1.0202976,-3.813479
932,9.319999999999846,1.3358096,0.9445673,0.32282373,1.5728253,-0.8239045,-4.614476
933,9.329999999999846,1.5614935,0.82614577,0.34410545,1.7299703,-0.73563445,-5.0016117
934,9.339999999999845,2.0029826,0.78108215,0.3310559,1.7493653,-0.6565274,-5.26856
935,9.349999999999845,3.0432262,0.80401033,0.6077184,1.7935003,-0.6049093,-5.952271
936,9.359999999999845,3.9129114,0.7956562,0.8972475,2.1946862,-1.0238101,-6.1498857
937,9.369999999999845,3.9129114,0.7956562,0.8972475,2.6149614,-1.4485142,-6.249457
938,9.379999999999844,3.9129114,0.7956562,0.8972475,2.6149614,-1.4485142,-6.249457
939,9.389999999999844,6.4863544,-0.2564174,-0.33154374,2.2670736,-1.616044,-6.6559877
940,9.399999999999844,6.377933,-0.72845715,-0.3702045,-0.89476484,-1.6801848,-7.5673985
941,9.409999999999844,5.927175,-1.5816777,0.07732158,-3.263853,-0.98272943,-7.8458004
942,9.419999999999844,5.2178044,-2.2964754,0.72613996,-4.5297184,0.056505036,-7.887492
943,9.429999999999843,4.0535293,-2.739489,1.8641332,-4.3979244,1.3820826,-7.643757
944,9.439999999999843,3.1491473,-2.8996813,2.4256902,-2.5877779,1.9457586,-7.2810555
945,9.449999999999843,2.2737303,-3.093961,2.3418438,0.77198094,1.5102116,-6.6634707
946,9.459999999999843,1.0860391,-3.2887285,1.3557498,3.6833646,0.18463401,-5.9008055
947,9.469999999999843,-0.2382456,-3.2392132,-0.22239104,5.21908,-1.0488557,-4.02774
948,9.479999999999842,-0.6166213,-3.1307313,-0.62076795,4.60852,-0.581391,-3.0976977
949,9.489999999999842,-0.6166213,-3.1307313,-0.62076795,4.60852,-0.581391,-3.0976977
950,9.499999999999842,-1.3478225,-3.1650016,-1.2378161,2.1164954,0.77411896,-0.4176791
951,9.509999999999842,-1.5811898,-3.1609771,-1.3503227,1.0180069,0.6713409,0.7110472
952,9.519999999999841,-1.5811898,-3.1609771,-1.3503227,-0.1693624,0.33399057,2.0470095
953,9.529999999999841,-1.5272232,-3.3095834,-0.9960947,-0.82741696,0.03970624,3.0705142
954,9.539999999999841,-1.3976425,-3.275557,-0.8134621,-1.2168436,-0.23335053,4.033085
955,9.54999999999984,-1.1505549,-3.1589038,-0.62918305,-1.3794864,-0.66828656,5.1850243
956,9.55999999999984,-0.68333256,-2.9510257,-0.53643376,-1.3228287,-1.1644619,6.1833305
957,9.56999999999984,-0.22556195,-2.7648566,-0.503444,-1.2722796,-1.5596917,6.8667364
958,9.57999999999984,0.32697028,-2.516915,-0.5330799,-1.3753631,-1.6415477,7.2028646
959,9.58999999999984,0.32697028,-2.516915,-0.5330799,-1.3753631,-1.6415477,7.2028646
960,9.59999999999984,0.32697028,-2.516915,-0.5330799,-1.3753631,-1.6415477,7.2028646
961,9.60999999999984,0.32697028,-2.516915,-0.5330799,-1.3753631,-1.6415477,7.2028646
962,9.61999999999984,1.3392245,-1.9047453,-0.4944191,-1.6986635,-1.4993688,7.4068937
963,9.62999999999984,1.709246,-1.3178208,0.040551145,-3.6995525,-1.3408492,8.324718
964,9.639999999999839,3.848395,-0.24946578,0.95279956,-2.5506678,-2.5190556,9.692293
965,9.649999999999839,3.848395,-0.24946578,0.95279956,-2.5506678,-2.5190556,9.692293
966,9.659999999999838,6.6505103,1.6130819,0.53698254,-1.5741998,-0.54825157,8.545241
967,9.669999999999838,6.6505103,1.6130819,0.53698254,-1.5741998,-0.54825157,8.545241
968,9.679999999999838,6.6505103,1.6130819,0.53698254,-1.5741998,-0.54825157,8.545241
969,9.689999999999838,6.6505103,1.6130819,0.53698254,-1.5741998,-0.54825157,8.545241
970,9.699999999999838,6.6505103,1.6130819,0.53698254,-1.5741998,-0.54825157,8.545241
971,9.709999999999837,3.913704,2.2854383,2.0533514,-1.7745636,0.61437774,2.791807
972,9.719999999999837,3.357635,2.177871,1.8132766,0.03726278,0.14752395,2.1273382
973,9.729999999999837,3.357635,2.177871,1.8132766,0.03726278,0.14752395,2.1273382
974,9.739999999999837,3.357635,2.177871,1.8132766,0.03726278,0.14752395,2.1273382
975,9.749999999999837,3.357635,2.177871,1.8132766,0.03726278,0.14752395,2.1273382
976,9.759999999999836,3.357635,2.177871,1.8132766,0.03726278,0.14752395,2.1273382
977,9.769999999999836,2.4409351,2.04268,0.9382865,1.5311338,1.4576772,1.1527027
978,9.779999999999836,1.174032,2.0845118,-0.27074748,0.9286679,1.8246545,0.21762075
979,9.789999999999836,0.92761505,2.0757918,-0.237087,0.93462384,1.4795157,-1.1707232
980,9.799999999999836,0.6461353,2.025972,-0.033111688,1.5670221,0.8051204,-1.7829629
981,9.809999999999835,0.22074458,1.7952268,0.24074577,2.1794145,0.26053402,-2.0986276
982,9.819999999999835,0.22074458,1.7952268,0.24074577,2.1794145,0.26053402,-2.0986276
983,9.829999999999835,0.30776188,1.4378278,0.18074225,2.9434543,-0.1226312,-2.7882943
984,9.839999999999835,0.30776188,1.4378278,0.18074225,2.9434543,-0.1226312,-2.7882943
985,9.849999999999834,0.30776188,1.4378278,0.18074225,2.9236012,0.13179417,-3.0940325
986,9.859999999999834,0.30776188,1.4378278,0.18074225,2.9236012,0.13179417,-3.0940325
987,9.869999999999834,0.67266124,0.9950581,0.16647314,2.6615398,0.7611381,-3.926489
988,9.879999999999834,1.3995328,0.81431586,0.31142062,2.7209466,0.6666067,-4.53262
989,9.889999999999834,1.7284545,0.7716304,0.49752906,2.87687,0.43264532,-4.8902817
990,9.899999999999833,2.4016645,0.75620264,0.7072974,3.3473887,-0.024129177,-5.3748507
991,9.909999999999833,2.8205912,0.7195542,0.6991262,3.563788,-0.20754147,-5.6920424
992,9.919999999999833,3.5470364,0.56363046,0.8204137,3.869526,-0.6270532,-5.896224
993,9.929999999999833,4.4366617,0.5447269,0.67607605,3.9765801,-0.9260717,-5.564066
994,9.939999999999833,5.605266,0.4025235,0.2947733,3.7665951,-1.0154108,-5.572313
995,9.949999999999832,6.539528,-0.100432694,-0.72424954,2.1357377,-1.2253957,-6.0796366
996,9.959999999999832,6.66545,-0.7443117,-0.9462137,-0.8671232,-1.1696543,-6.699512
997,9.969999999999832,5.250794,-2.3043418,0.49460202,-5.0029864,0.9451612,-7.498982
998,9.979999999999832,5.250794,-2.3043418,0.49460202,-5.0029864,0.9451612,-7.498982
999,9.989999999999831,2.8646183,-2.8929126,2.8052857,-5.1242433,2.1503985,-7.407963
1000,9.999999999999831,2.8646183,-2.8929126,2.8052857,-2.4727826,2.6537514,-6.932099
