id,timestamp,acc_x,acc_y,acc_z,gyro_x,gyro_y,gyro_z
0,0,-0.2573321,-0.3357513,-0.14921603,0.1348485,-2.797152,1.7050776
1,0.01,-0.15403338,-0.37044844,-0.07561417,0.6206391,-3.1164818,1.5906931
2,0.02,0.054942228,-0.53966564,-0.061710916,0.7881689,-1.9236146,1.1171198
3,0.03,0.18092519,-0.673088,-0.10512808,0.6418667,-0.6948592,0.6719518
4,0.04,0.2537953,-0.81455976,-0.14019111,0.6418667,-0.6948592,0.6719518
5,0.05,0.3566062,-1.0581106,-0.13805683,0.4709771,1.8875736,-0.31597003
6,0.060000000000000005,0.3872177,-1.1757393,-0.10951859,0.45356745,2.783102,-0.5839872
7,0.07,0.34465426,-1.3604453,-0.032136023,0.31673363,4.278042,-0.9433287
8,0.08,0.34465426,-1.3604453,-0.032136023,0.31673363,4.278042,-0.9433287
9,0.09,-0.008476105,-1.4653294,0.0031099375,-0.021685716,5.518404,-1.0277808
10,0.09999999999999999,-0.011586042,-1.3869712,-0.021769563,-0.9859365,6.773885,-0.56184334
11,0.10999999999999999,0.03683142,-1.3101983,-0.038294915,-1.3054191,6.734026,-0.5367978
12,0.11999999999999998,0.064637914,-1.0335969,-0.0048783333,-1.7024814,6.1538563,-0.799928
13,0.12999999999999998,0.01695221,-0.81730384,0.052442085,-1.7496707,5.590486,-0.98990715
14,0.13999999999999999,0.009085896,-0.57613117,0.062076796,-1.6033685,4.7795625,-1.0713049
15,0.15,0.046892982,-0.42435405,0.045917314,-1.4592043,4.2116103,-1.1157454
16,0.16,0.050002918,-0.29959065,0.046405144,-1.2779301,3.6329684,-1.178359
17,0.17,0.03292875,-0.2828214,-0.011951917,-0.7012733,1.9593502,-1.2351695
18,0.18000000000000002,0.03292875,-0.2828214,-0.011951917,-0.7012733,1.9593502,-1.2351695
19,0.19000000000000003,0.09354204,-0.83504874,0.1542773,-0.35796702,0.7191411,-1.1275045
20,0.20000000000000004,0.09354204,-0.83504874,0.1542773,-0.06154467,-0.17592919,-0.9972375
21,0.21000000000000005,0.15909465,-1.1108575,0.19927992,0.20463985,-0.9821186,-0.8527679
22,0.22000000000000006,0.4290494,-1.6377175,0.2766625,0.4644103,-2.323884,-0.58016926
23,0.23000000000000007,0.6177799,-1.6958916,0.30215177,0.6632469,-3.8482983,-0.519999
24,0.24000000000000007,0.7704108,-1.5819826,0.27843088,0.7518224,-4.645172,-0.81214535
25,0.25000000000000006,0.8094985,-1.3431271,0.22324473,0.7518224,-4.645172,-0.81214535
26,0.26000000000000006,0.75089747,-0.9973143,0.12580003,0.711658,-4.8919616,-1.5613716
27,0.2700000000000001,0.719981,-0.90694314,0.09226148,0.6478226,-4.7181706,-1.7692184
28,0.2800000000000001,0.6369274,-0.676198,0.019879209,0.48579058,-4.233907,-2.130698
29,0.2900000000000001,0.6369274,-0.676198,0.019879209,0.3622431,-3.610061,-2.3554964
30,0.3000000000000001,0.6665023,-0.49502888,-0.96597105,0.124005646,-2.0554087,-2.4147503
31,0.3100000000000001,0.3612406,-0.5409462,-0.7272375,-0.92485,2.9057333,-2.3671029
32,0.3200000000000001,0.13415417,-0.5746067,-0.46252698,-1.2986995,4.1966443,-1.9332358
33,0.3300000000000001,-0.020001167,-0.6363176,-0.7765697,-1.6788104,4.5318565,-1.4756978
34,0.34000000000000014,-0.18196183,-0.7016263,-1.0026194,-2.4118488,4.6648726,-0.929126
35,0.35000000000000014,-0.20812188,-0.7329696,-0.70327276,-3.058755,4.39319,-0.33750305
36,0.36000000000000015,-0.20812188,-0.7329696,-0.70327276,-3.0960178,3.3089044,0.31749722
37,0.37000000000000016,-0.20812188,-0.7329696,-0.70327276,-3.0960178,3.3089044,0.31749722
38,0.38000000000000017,-0.12701961,-0.7020531,-0.045002624,-1.7852536,1.349096,0.7669413
39,0.3900000000000002,-0.097444706,-0.8476104,-0.043356188,-0.22418754,-0.016340645,1.018465
40,0.4000000000000002,0.00042685418,-1.0471952,-0.0102445,0.6543894,-0.50488013,1.2034045
41,0.4100000000000002,0.58972955,-1.9918846,0.3084936,0.6543894,-0.50488013,1.2034045
42,0.4200000000000002,0.58972955,-1.9918846,0.3084936,0.9045387,-0.9111055,1.0549643
43,0.4300000000000002,0.9598731,-3.070606,0.4438674,0.8691085,-1.9231565,0.28939742
44,0.4400000000000002,0.9598731,-3.070606,0.4438674,0.8691085,-1.9231565,0.28939742
45,0.45000000000000023,1.0265843,-3.5465484,0.5361288,0.204029,-2.1632266,0.15042557
46,0.46000000000000024,1.0296943,-3.2804964,0.5109445,0.204029,-2.1632266,0.15042557
47,0.47000000000000025,0.90139407,-2.2651932,0.35245958,0.04841107,-1.8952094,0.4529566
48,0.48000000000000026,0.76321524,-1.8252894,0.2598932,0.16249016,-1.6907222,0.35369098
49,0.49000000000000027,0.60924286,-1.4624025,0.18519373,0.3717115,-1.4138476,0.24862215
50,0.5000000000000002,0.38849828,-1.0644523,0.088419795,0.3717115,-1.4138476,0.24862215
51,0.5100000000000002,0.23684308,-0.85315955,0.020489,1.1378893,0.14477506,0.1957823
52,0.5200000000000002,0.059759583,-0.5832657,-0.12543415,2.457969,2.7870727,0.18585575
53,0.5300000000000002,-0.41837808,-0.37508285,-2.0381677,2.8950431,4.0069704,0.29733866
54,0.5400000000000003,-0.49124816,-0.15317966,-2.2965364,0.572228,2.2479842,0.97142845
55,0.5500000000000003,0.025062438,-0.22983049,-1.0770141,-1.2508993,0.45723262,1.2803736
56,0.5600000000000003,0.21678093,-0.27263784,-0.52289635,-1.8645134,-0.16920967,1.2276864
57,0.5700000000000003,0.3523986,-0.26550332,0.061649937,-2.2182045,-0.8445212,0.8208502
58,0.5800000000000003,0.32300666,-0.16836348,0.16348514,-2.1503985,-1.1071932,0.38973203
59,0.5900000000000003,0.22940363,-0.085614756,0.16250949,-2.0259347,-1.2838861,0.13515393
60,0.6000000000000003,0.14464259,-0.03195308,0.1800105,-1.9083431,-1.2993103,-0.04138612
61,0.6100000000000003,0.042990312,0.029087063,0.26446667,-1.7444785,-1.1812607,-0.14248432
62,0.6200000000000003,0.042990312,0.029087063,0.26446667,-1.1191051,-0.23396139,-0.23777929
63,0.6300000000000003,0.025916148,0.03725827,0.26519838,-1.1191051,-0.23396139,-0.23777929
64,0.6400000000000003,0.038416874,0.051039565,0.27440625,-0.644921,0.24755314,-0.27473664
65,0.6500000000000004,0.040307228,0.05250306,0.27538192,-0.45020768,0.26984972,-0.2854268
66,0.6600000000000004,0.03237994,0.05933273,0.28544348,-0.09040806,0.14477506,-0.26710084
67,0.6700000000000004,0.02853825,0.06073525,0.28196767,0.1459968,-0.052534413,-0.22082779
68,0.6800000000000004,0.021830542,0.089822315,0.25281963,0.4100433,-0.40958515,-0.07574729
69,0.6900000000000004,0.017744938,0.09994486,0.21562232,0.61193424,-0.8594874,0.14263703
70,0.7000000000000004,0.019086478,0.11146992,0.16775368,0.6940956,-1.1601858,0.2875648
71,0.7100000000000004,0.03585575,0.11232363,0.1015913,0.7501425,-1.6366607,0.56153786
72,0.7200000000000004,0.048234522,0.10842097,0.0807974,0.7473936,-1.8866574,0.710589
73,0.7300000000000004,0.0582351,0.09482261,0.06646729,0.7266242,-2.1429152,0.84116143
74,0.7400000000000004,0.066223375,0.0787241,0.05116152,0.7076874,-2.2736404,0.90026265
75,0.7500000000000004,0.067321,0.068479605,0.04884431,0.679893,-2.3273966,0.9138544
76,0.7600000000000005,0.0717115,0.06073525,0.056283772,0.6229298,-2.3791673,0.8781188
77,0.7700000000000005,0.07408969,0.053966567,0.06421106,0.6229298,-2.3791673,0.8781188
78,0.7800000000000005,0.047746688,0.005488125,0.045551438,0.54733527,-2.395508,0.82634795
79,0.7900000000000005,-0.013598354,-0.06286953,-0.17110755,0.39721513,-2.324495,0.8556695
80,0.8000000000000005,-0.38453463,-0.48374772,-2.2421432,-0.9295842,-3.5199583,1.1850786
81,0.8100000000000005,0.10445731,-0.31331098,0.06854059,-3.476434,-6.3945374,2.0248656
82,0.8200000000000005,0.8974304,-3.2269566,-0.7424214,-2.3919957,-0.10797043,1.8994855
83,0.8300000000000005,0.8974304,-3.2269566,-0.7424214,-2.3919957,-0.10797043,1.8994855
84,0.8400000000000005,0.8974304,-3.2269566,-0.7424214,-2.3919957,-0.10797043,1.8994855
85,0.8500000000000005,1.3269677,-8.086448,0.2367821,-2.3919957,-0.10797043,1.8994855
86,0.8600000000000005,2.0330455,-7.2235312,0.1835473,1.0033462,0.57436603,3.7678168
87,0.8700000000000006,1.7955316,-4.5819745,0.19452354,0.5137377,-1.4156802,0.06001751
88,0.8800000000000006,0.61509687,-2.5474048,-0.15226498,1.6614008,-4.3751698,-2.7111726
89,0.8900000000000006,0.19080381,-2.130673,-0.083175585,2.1798725,-4.9141054,-2.8976393
90,0.9000000000000006,-0.19684075,-1.7112583,-0.021098793,3.428481,-5.0168834,-2.6203065
91,0.9100000000000006,-0.23867247,-1.5228328,-0.14177656,3.9118283,-4.412738,-2.2734878
92,0.9200000000000006,-0.23531862,-1.1490915,-0.7583979,3.8324158,-3.1306844,-1.6920967
93,0.9300000000000006,-0.16080207,-0.56021565,-1.0095102,2.773481,-2.6766589,-1.3654366
94,0.9400000000000006,-0.16080207,-0.56021565,-1.0095102,1.7180585,-2.2510383,-1.1829406
95,0.9500000000000006,-0.09268834,-0.40227956,-0.6930283,0.6931793,-1.3002267,-1.0134255
96,0.9600000000000006,0.014330104,-0.28922418,-0.29666364,0.030695979,-0.10140363,-0.9240864
97,0.9700000000000006,0.028050419,-0.11586042,-0.062320713,-0.27076602,0.36361754,-0.9285152
98,0.9800000000000006,0.0069516255,-0.05110054,-0.034087352,-0.420428,0.9069822,-0.9622655
99,0.9900000000000007,-0.01396423,0.0019513334,-0.022257395,-0.48395798,1.9255999,-1.0757337
100,1.0000000000000007,-0.016220458,0.022440333,-0.005488125,-0.4370741,2.229811,-1.1085677
101,1.0100000000000007,-0.023111105,0.022928167,0.00073175,-0.27488935,2.7104092,-1.1902709
102,1.0200000000000007,-0.019635292,0.022928167,-0.005061271,-0.2191479,2.7985263,-1.2159272
103,1.0300000000000007,-0.01323248,0.022501312,-0.0064637917,-0.2191479,2.7985263,-1.2159272
104,1.0400000000000007,-0.01323248,0.022501312,-0.0064637917,-0.12614368,2.8576276,-1.2620476
105,1.0500000000000007,-0.026221042,0.017013188,-0.024513626,-0.049938235,2.8385382,-1.2933544
106,1.0600000000000007,-0.029574897,0.0086590415,-0.02494048,-0.004581489,2.8364,-1.2906055
107,1.0700000000000007,-0.029635875,0.0140252095,-0.021159772,0.043066,2.8501446,-1.2939653
108,1.0800000000000007,-0.014147166,0.028294332,-0.16586334,0.06627888,2.7183504,-1.3153456
109,1.0900000000000007,0.010671355,0.035428897,-0.26904008,-0.07895433,2.2072089,-1.3582588
110,1.1000000000000008,0.005366167,0.03164819,-0.22373258,-0.07895433,2.2072089,-1.3582588
111,1.1100000000000008,-0.041587792,0.023781875,-0.0023781876,-0.36651915,1.129948,-1.4570663
112,1.1200000000000008,-0.067625895,0.027562585,0.015854584,-0.2750421,1.1658363,-1.4567609
113,1.1300000000000008,-0.16738781,0.03420931,-0.0061588963,-0.15821409,1.233795,-1.4048374
114,1.1400000000000008,-0.25836873,0.034087352,-0.022196416,-0.091477074,1.2136365,-1.2686144
115,1.1500000000000008,-0.231233,0.037746105,-0.003963646,-0.03191771,1.1472049,-1.0978775
116,1.1600000000000008,-0.2622714,0.037990022,-0.020854875,0.07971791,1.0812315,-0.82894415
117,1.1700000000000008,-0.28708994,0.034880083,-0.023964813,0.12782355,1.0832168,-0.49220467
118,1.1800000000000008,-0.4323423,0.021159772,-0.06421106,0.12782355,1.0832168,-0.49220467
119,1.1900000000000008,-0.7499218,0.010732334,-0.13208087,0.058643065,0.9984592,0.1414153
120,1.2000000000000008,-0.9872528,-0.16415593,-0.37392426,-0.47143525,0.25152376,2.304031
121,1.2100000000000009,-0.6574774,-0.26233238,-0.34953257,-0.47143525,0.25152376,2.304031
122,1.2200000000000009,-0.63479316,-0.3731925,-0.30751795,-1.2707524,-0.6414085,3.5810447
123,1.2300000000000009,-1.1248218,-0.728823,-0.37672928,-1.6392568,-0.96745783,4.1673226
124,1.2400000000000009,-1.1248218,-0.728823,-0.37672928,-1.6392568,-0.96745783,4.1673226
125,1.2500000000000009,-1.6818055,-2.5249643,-0.5980837,-3.7281106,-3.1537445,6.2257857
126,1.260000000000001,-1.6818055,-2.5249643,-0.5980837,-3.7281106,-3.1537445,6.2257857
127,1.270000000000001,-0.8950522,-6.427875,0.25940537,-3.2059736,-7.747604,4.445877
128,1.280000000000001,-0.9741422,-7.4493375,0.59137595,-0.80878556,-9.168018,2.7957776
129,1.290000000000001,-0.84157354,-8.110657,0.79376584,-0.80878556,-9.168018,2.7957776
130,1.300000000000001,0.23812364,-5.904552,0.34916672,1.8315268,-8.938486,1.5758796
131,1.310000000000001,0.77852106,-4.3367167,0.06969919,4.3139305,-4.029725,-0.96593064
132,1.320000000000001,0.77852106,-4.3367167,0.06969919,3.8415787,0.0015271631,-3.176652
133,1.330000000000001,1.1214678,-1.220925,-1.8846831,3.8415787,0.0015271631,-3.176652
134,1.340000000000001,0.3488618,-0.787546,-0.5537518,0.5936083,5.6375227,-4.572021
135,1.350000000000001,0.13805683,-0.58820504,-0.15580177,0.08109236,6.338796,-4.3592873
136,1.360000000000001,0.028233355,-0.41599986,-0.048905294,-0.13683382,6.5710773,-4.066683
137,1.370000000000001,0.012256813,-0.14263028,-0.022196416,-0.56046885,6.2913013,-3.3257031
138,1.380000000000001,0.03164819,-0.014208145,0.0066467295,-0.7987063,6.054744,-2.9286406
139,1.390000000000001,-0.027562585,0.06445498,0.03286777,-0.91797775,6.0654335,-2.6578746
140,1.400000000000001,-0.0034148335,0.044575773,0.023111105,-0.9816604,6.0338216,-2.390163
141,1.410000000000001,-0.026647896,0.13519081,0.049515083,-1.0386237,5.6376753,-1.7808249
142,1.420000000000001,-0.025123417,0.25708818,0.064637914,-1.0428997,5.1327953,-1.4338534
143,1.430000000000001,-0.05335677,0.21976891,0.038477857,-1.0855075,4.365701,-0.9109528
144,1.440000000000001,-0.10195717,0.21739073,0.006768687,-1.382999,3.5530977,-0.28313604
145,1.450000000000001,-0.11708001,0.2157443,-0.021098793,-1.382999,3.5530977,-0.28313604
146,1.460000000000001,-0.10171325,0.22562292,-0.007866313,-2.325564,1.9204077,0.66813385
147,1.470000000000001,-0.06860156,0.23623328,0.042502478,-2.7966938,0.9990701,1.1620184
148,1.480000000000001,-0.0037197291,0.21958598,0.19104773,-3.2128458,-0.3378085,1.8193095
149,1.490000000000001,0.06250364,0.17982757,0.27550387,-3.2950072,-1.4666874,2.243097
150,1.500000000000001,0.115250625,0.14915505,0.32855576,-3.1581733,-2.6285532,2.5851817
151,1.5100000000000011,0.23714797,0.16757075,0.36611894,-2.8819096,-3.4906368,2.7678304
152,1.5200000000000011,0.3488618,0.17129049,0.40179175,-2.4258986,-4.6202793,2.911231
153,1.5300000000000011,0.41404852,0.1629973,0.42106113,-1.6371188,-5.6237783,2.7942502
154,1.5400000000000011,0.41532913,0.15025267,0.39538893,-1.6371188,-5.6237783,2.7942502
155,1.5500000000000012,0.38679087,0.13330047,0.3392881,-1.2478449,-5.7997074,2.6482534
156,1.5600000000000012,0.33831242,0.12640981,0.26477155,-0.6423248,-5.40463,2.2748623
157,1.5700000000000012,0.2681864,0.110067405,0.17074168,-0.6423248,-5.40463,2.2748623
158,1.5800000000000012,0.23983108,0.105372004,0.1290929,-0.31444287,-4.781853,1.9550742
159,1.5900000000000012,0.23983108,0.105372004,0.1290929,-0.111635625,-4.1670175,1.651627
160,1.6000000000000012,0.19549921,0.094212815,0.08293167,-0.032375857,-3.809203,1.4683673
161,1.6100000000000012,0.11098208,0.07402871,0.016586334,0.012370021,-2.905275,1.0085385
162,1.6200000000000012,0.10317675,0.06890646,-0.029270003,-0.105374254,-2.2069035,0.7506007
163,1.6300000000000012,-0.38880318,-0.18305947,-1.1991553,-0.5545129,-0.894154,0.63346726
164,1.6400000000000012,-0.38880318,-0.18305947,-1.1991553,-3.0818152,6.066045,0.9656252
165,1.6500000000000012,-0.9603609,-0.63802505,-2.5778944,-3.0818152,6.066045,0.9656252
166,1.6600000000000013,0.21482961,-0.96493435,-0.60021794,-4.0048327,25.044407,-1.1453724
167,1.6700000000000013,0.5207011,-6.665816,-8.690507,-2.341141,19.28242,-1.3840679
168,1.6800000000000013,0.6918696,-6.2006664,0.8841369,1.9361374,2.2117903,0.49327368
169,1.6900000000000013,0.6918696,-6.2006664,0.8841369,1.9361374,2.2117903,0.49327368
170,1.7000000000000013,0.6918696,-6.2006664,0.8841369,1.9361374,2.2117903,0.49327368
171,1.7100000000000013,0.6918696,-6.2006664,0.8841369,4.084398,-5.0927835,2.3791673
172,1.7200000000000013,0.8881616,-7.602517,1.4919773,4.084398,-5.0927835,2.3791673
173,1.7300000000000013,0.66278255,-2.9819424,0.41343874,3.1823025,-9.186955,3.4240525
174,1.7400000000000013,0.3055666,-1.7630906,0.31739658,3.4002287,-9.229258,2.8506026
175,1.7500000000000013,0.15305771,-1.1800689,0.20836583,3.7244453,-8.832348,2.4118488
176,1.7600000000000013,0.061162103,-0.77632576,0.14104481,3.867846,-8.491332,2.1728477
177,1.7700000000000014,-0.013598354,-0.39002275,0.08000467,4.0795107,-7.813272,1.7395915
178,1.7800000000000014,-0.056954544,-0.1516552,0.031282313,4.2471933,-7.1245213,1.2851077
179,1.7900000000000014,-0.14653294,-0.06774786,-0.6723563,4.252844,-6.7170744,1.0558805
180,1.8000000000000014,-0.14653294,-0.06774786,-0.6723563,4.252844,-6.7170744,1.0558805
181,1.8100000000000014,-0.8324875,0.45905116,-4.7411304,4.252844,-6.7170744,1.0558805
182,1.8200000000000014,-0.008415125,0.010854292,0.14970386,-3.3479998,-4.631122,2.0650299
183,1.8300000000000014,0.06530869,0.011768979,0.14165461,-2.8371637,-3.2357533,1.7027869
184,1.8400000000000014,0.09299323,0.10031073,0.048722353,-2.8371637,-3.2357533,1.7027869
185,1.8500000000000014,0.09299323,0.10031073,0.048722353,-2.7327056,-2.6710083,0.28695396
186,1.8600000000000014,0.12653178,0.15196009,-0.024696562,-2.7327056,-2.6710083,0.28695396
187,1.8700000000000014,-0.1299466,0.48344287,0.031038398,-3.6981783,-3.2809572,-1.8061758
188,1.8800000000000014,-0.69199157,1.2737938,0.45673394,-4.3815837,-5.157688,-3.3417382
189,1.8900000000000015,-0.8116937,1.2781844,0.67473453,-4.3295074,-5.3925657,-3.9680278
190,1.9000000000000015,-0.7027849,1.0339627,0.90401614,-2.2925773,-0.8587238,-4.0204096
191,1.9100000000000015,-0.69790655,0.76791066,0.7645568,-2.2925773,-0.8587238,-4.0204096
192,1.9200000000000015,-0.7499828,0.73986024,0.7746184,-1.3445144,0.93447113,-3.0051515
193,1.9300000000000015,-0.6400983,0.47923526,0.61369437,-0.839787,1.2235631,-2.1320724
194,1.9400000000000015,-0.6400983,0.47923526,0.61369437,-0.839787,1.2235631,-2.1320724
195,1.9500000000000015,-0.6400983,0.47923526,0.61369437,-0.78969604,1.14018,-1.7974709
196,1.9600000000000015,-0.6545504,0.33788556,0.47838157,-0.7174612,1.1305588,-1.1656836
197,1.9700000000000015,-0.66296554,0.30672523,0.5127738,-0.6204864,1.2218832,-0.8901834
198,1.9800000000000015,-0.3473983,-0.1589727,0.42709813,0.34009922,2.795014,-0.26190847
199,1.9900000000000015,-0.3473983,-0.1589727,0.42709813,0.34009922,2.795014,-0.26190847
200,2.0000000000000013,-0.3471544,-0.24111164,0.35111806,1.2556335,5.2360315,-0.21105394
201,2.010000000000001,-0.4050846,-0.3017859,0.38294917,1.2556335,5.2360315,-0.21105394
202,2.020000000000001,-1.0005461,-0.82614577,0.77522814,2.1383338,7.1639223,0.5035057
203,2.0300000000000007,-2.7260737,-5.163289,2.0476196,3.320358,10.3485155,2.8050933
204,2.0400000000000005,-2.7260737,-5.163289,2.0476196,3.320358,10.3485155,2.8050933
205,2.0500000000000003,-1.7716888,-10.178642,0.8571841,3.0714304,15.192829,6.752199
206,2.06,-0.33947104,-9.273651,0.248795,0.40668353,8.353124,3.0311134
207,2.07,0.550215,-6.12737,-0.2736135,0.107665,-2.2492058,0.20891592
208,2.0799999999999996,0.89371073,-2.9016325,-0.3614845,0.5145013,-7.8193808,-1.0966558
209,2.0899999999999994,1.0725017,-1.510698,-1.5897269,0.35842517,-10.3952465,-2.2382102
210,2.099999999999999,0.87688047,-0.5100298,-2.519659,-1.7632625,-8.65871,-3.2349896
211,2.109999999999999,0.6249755,-0.40849942,-1.8499249,-2.4976752,-6.4687576,-3.2914946
212,2.1199999999999988,0.13281263,-0.32270175,-0.17714448,-2.9008462,-0.014660766,-2.7088819
213,2.1299999999999986,0.071162686,-0.22202514,0.18305947,-2.6371052,2.005318,-2.2800546
214,2.1399999999999983,0.10671354,-0.028050419,0.2658082,-2.5164595,2.5824327,-2.0786216
215,2.149999999999998,0.10671354,-0.028050419,0.2658082,-2.310445,3.0795245,-1.9483547
216,2.159999999999998,0.116104335,0.012012896,0.27568683,-2.2128594,3.2742376,-1.9130772
217,2.1699999999999977,0.0775655,0.122507155,0.16574138,-1.8025106,4.0329323,-1.6395624
218,2.1799999999999975,0.0775655,0.122507155,0.16574138,-1.8025106,4.0329323,-1.6395624
219,2.1899999999999973,0.097017854,0.24702659,0.19702369,-1.6012305,4.0862303,-1.158964
220,2.199999999999997,0.02555027,0.22690348,0.14055698,-1.675298,4.1998515,0.04016439
221,2.209999999999997,0.046466127,0.21909817,0.24611193,-1.905136,3.9739838,0.8727737
222,2.2199999999999966,0.087992944,0.20312162,0.4913701,-1.8632917,3.1354187,1.5212072
223,2.2299999999999964,0.087992944,0.20312162,0.4913701,-1.8632917,3.1354187,1.5212072
224,2.239999999999996,0.21946402,0.1515942,0.43972078,-1.7447839,2.1994202,1.9430096
225,2.249999999999996,0.26745462,0.1314101,0.42923236,-1.4952455,0.04642576,2.5283713
226,2.259999999999996,0.3527645,0.12884897,0.3784367,-1.1691961,-1.363604,2.6574166
227,2.2699999999999956,0.3568501,0.13836174,0.30574957,-0.9483683,-2.2214115,2.6671903
228,2.2799999999999954,0.3568501,0.13836174,0.30574957,-0.9483683,-2.2214115,2.6671903
229,2.289999999999995,0.3568501,0.13836174,0.30574957,-0.9483683,-2.2214115,2.6671903
230,2.299999999999995,0.24684367,0.10360361,0.15939954,-0.45081854,-3.7333028,2.537076
231,2.3099999999999947,0.19293809,0.08213894,0.1030548,-0.28802297,-3.922824,2.3945918
232,2.3199999999999945,0.17555903,0.08439517,0.08335852,-0.17088956,-3.9113703,2.2411118
233,2.3299999999999943,0.15714332,0.0837244,0.07683375,-0.022907447,-3.7545304,2.0749564
234,2.339999999999994,0.14019111,0.07969977,0.06652827,0.0954477,-3.574478,1.9306396
235,2.349999999999994,0.13647138,0.07329696,0.05390558,0.17211129,-3.4289393,1.8203784
236,2.3599999999999937,0.12025091,0.072138354,0.021098793,0.3193298,-2.801428,1.3747523
237,2.3699999999999934,0.12025091,0.072138354,0.021098793,0.3193298,-2.801428,1.3747523
238,2.3799999999999932,0.082626775,0.08165111,0.021586625,0.2958115,-2.172237,1.0146471
239,2.389999999999993,0.082626775,0.08165111,0.021586625,0.2958115,-2.172237,1.0146471
240,2.399999999999993,0.13031249,0.08165111,0.081956,0.23655757,-1.5421293,0.70096785
241,2.4099999999999926,-0.93914014,-0.5975958,-2.335014,0.23655757,-1.5421293,0.70096785
242,2.4199999999999924,-0.17482726,-0.72845715,-1.7629079,-6.6775208,12.383765,1.3414601
243,2.429999999999992,0.2361723,-0.6283903,0.20287769,-6.9446216,14.351516,0.24785857
244,2.439999999999992,-0.39496207,-3.7236931,-2.9519405,-6.9446216,14.351516,0.24785857
245,2.4499999999999917,-0.39496207,-3.7236931,-2.9519405,-5.2172475,15.926021,-0.56138515
246,2.4599999999999915,-0.24788031,-3.7499747,1.390325,8.996059,-3.153439,0.34697145
247,2.4699999999999913,-0.22300081,-7.820517,0.95792174,8.051509,-3.0094275,-0.45356745
248,2.479999999999991,-0.4598439,-8.377928,0.30337137,4.353331,-2.6571112,0.13576481
249,2.489999999999991,-0.83206075,-7.6552634,1.1357371,-0.29229903,-0.7469355,0.84482664
250,2.4999999999999907,-0.76882535,-4.451723,1.3508716,-1.5496124,0.743423,1.273654
251,2.5099999999999905,-0.1855596,-1.4330105,0.25239277,-1.3542882,0.805884,1.3272575
252,2.5199999999999902,-0.22080556,-0.8931009,0.13573962,-0.5529858,0.15103643,0.90194255
253,2.52999999999999,-0.22080556,-0.8931009,0.13573962,-0.5529858,0.15103643,0.90194255
254,2.53999999999999,-0.24544115,-0.5792411,0.02786748,-0.32788193,-0.111177474,0.8579602
255,2.5499999999999896,-0.22001283,-0.26379588,0.02859923,-0.04505131,-0.59635717,0.9045387
256,2.5599999999999894,0.25208786,0.30495682,-1.165129,1.6612481,-6.8719287,-0.08155051
257,2.569999999999989,0.20452413,0.2573321,-1.030487,1.6389514,-9.166185,-1.2038627
258,2.579999999999989,0.20452413,0.2573321,-1.030487,1.6389514,-9.166185,-1.2038627
259,2.5899999999999888,-0.3061764,0.21818347,-0.012378771,1.4184291,-8.85495,-3.475976
260,2.5999999999999885,-0.6132675,0.41209725,0.1542773,1.4184291,-8.85495,-3.475976
261,2.6099999999999883,-0.6132675,0.41209725,0.1542773,1.6187929,-7.324427,-4.3385177
262,2.619999999999988,-0.86602616,0.49368733,0.08250481,1.5468636,-5.7911553,-6.190203
263,2.629999999999988,-0.86602616,0.49368733,0.08250481,1.1644619,-5.70426,-6.892698
264,2.6399999999999877,-0.8731607,0.43715966,0.10116444,1.0332786,-5.02681,-7.1092496
265,2.6499999999999875,-0.94231105,0.44496498,0.09012721,1.024421,-4.4628286,-6.9757757
266,2.6599999999999873,-1.2050703,0.5378972,0.08494398,1.2168436,-2.9087875,-6.0952134
267,2.669999999999987,-1.2619029,0.5253355,0.07329696,1.4886786,-1.5297593,-4.968778
268,2.679999999999987,-1.1672632,0.48600397,0.08933448,1.7040086,-0.64675355,-3.9973495
269,2.6899999999999866,-0.8496228,0.368802,0.027196707,1.9376645,0.14370605,-2.878397
270,2.6999999999999864,-0.8496228,0.368802,0.027196707,2.0015,0.4596761,-2.4866798
271,2.709999999999986,-0.39301074,0.27166218,-0.5956445,1.5215126,2.1519256,-0.97600996
272,2.719999999999986,-0.39301074,0.27166218,-0.5956445,1.5215126,2.1519256,-0.97600996
273,2.7299999999999858,-0.43496442,-0.08366342,-1.5672866,0.61178154,1.8161024,-0.61575216
274,2.7399999999999856,-0.40642616,-0.15232596,-1.3054421,-1.3165673,0.12644911,-0.03863723
275,2.7499999999999853,-0.40642616,-0.15232596,-1.3054421,-2.5331054,-1.0706941,0.29993483
276,2.759999999999985,-0.41288993,-0.13482493,0.18202282,-2.5331054,-1.0706941,0.29993483
277,2.769999999999985,-0.41288993,-0.13482493,0.18202282,-3.0705142,-1.4789047,1.3735305
278,2.7799999999999847,-0.37575364,-0.16122891,0.38544932,-3.5509596,-1.8382462,1.1986703
279,2.7899999999999845,-0.40447482,-0.28757775,0.11281146,-2.8829784,-1.1369729,1.5372424
280,2.7999999999999843,-1.1309806,-1.0200596,0.57796055,-3.032335,0.46609017,2.3432791
281,2.809999999999984,-1.6707072,-2.2408016,1.1758003,-2.5874724,3.2270484,3.722002
282,2.819999999999984,-0.62735367,-6.597824,1.7407722,-2.0853412,8.4333,5.0825515
283,2.8299999999999836,-0.15933856,-7.9805875,1.5724088,-1.4095715,13.016164,4.3828053
284,2.8399999999999834,0.8582818,-10.215474,1.1978139,-1.1275045,16.765656,2.3787093
285,2.849999999999983,2.1182942,-9.287798,0.09183463,1.159575,14.670845,-0.73731434
286,2.859999999999983,1.8715726,-5.488186,-0.60107166,2.766456,6.1472898,-2.7033842
287,2.869999999999983,1.2149489,-2.4936821,-1.1089061,1.6836973,2.2446244,-3.2594242
288,2.8799999999999826,0.58064365,-1.2864165,-0.6291221,-0.021685716,-0.27107146,-3.48239
289,2.8899999999999824,0.3761805,-0.9099921,-0.33416584,-0.7359399,-0.85154617,-3.34632
290,2.899999999999982,0.10348164,-0.39307174,-0.030855458,-1.8614591,-0.71853024,-2.7214046
291,2.909999999999982,0.067625895,-0.27708933,0.03164819,-2.3037255,-0.41431937,-2.2753203
292,2.9199999999999817,0.014208145,0.07561417,0.094517715,-3.1396947,0.10705414,-1.2012665
293,2.9299999999999815,0.014208145,0.07561417,0.094517715,-3.1396947,0.10705414,-1.2012665
294,2.9399999999999813,0.033294626,0.10555494,0.1197021,-3.397327,0.47739118,-0.5902485
295,2.949999999999981,0.10854292,0.34508112,0.20324357,-3.2242994,-0.056352317,0.056505036
296,2.959999999999981,0.1694611,0.32160413,0.21732976,-3.2351422,0.73991054,1.0844386
297,2.9699999999999807,0.17372964,0.20739016,0.2977003,-3.2420146,1.4480561,1.323745
298,2.9799999999999804,0.17372964,0.20739016,0.2977003,-3.2420146,1.4480561,1.323745
299,2.9899999999999802,0.3386783,0.3357513,0.4961265,-3.137404,2.3806946,1.6960673
300,2.99999999999998,0.3386783,0.3357513,0.4961265,-3.137404,2.3806946,1.6960673
301,3.00999999999998,0.43240327,0.30513975,0.6504648,-2.1821635,0.26847526,2.176971
302,3.0199999999999796,0.42154896,0.307274,0.5660086,-1.7741054,-1.0601566,2.4419339
303,3.0299999999999794,0.42154896,0.307274,0.5660086,-1.7741054,-1.0601566,2.4419339
304,3.039999999999979,0.3851444,0.32386038,0.3413004,-1.21608,-3.140611,2.959184
305,3.049999999999979,0.39746222,0.32239684,0.32678735,-1.111622,-3.4266486,3.0601294
306,3.0599999999999787,0.41599986,0.2883095,0.29672462,-0.6724099,-3.9935315,3.2511775
307,3.0699999999999785,0.37185097,0.2977003,0.27324766,-0.35934147,-3.887852,3.2184963
308,3.0799999999999783,0.37185097,0.2977003,0.27324766,0.076052725,-3.3970215,3.0981557
309,3.089999999999978,0.23781876,0.24727054,0.14921603,0.5047274,-2.5147796,2.8170052
310,3.099999999999978,0.22818404,0.24470939,0.14086188,0.56001073,-2.3472497,2.7591257
311,3.1099999999999777,0.16293633,0.2309891,0.09116385,0.89827734,-1.1766791,2.2487476
312,3.1199999999999775,0.1214705,0.2836141,0.016525354,0.97585726,-0.2835942,1.6473509
313,3.1299999999999772,0.097017854,0.34416643,-0.06097917,0.9363037,-0.063224554,1.4175128
314,3.139999999999977,0.076102,0.339593,-0.06500379,0.5056437,0.43050727,0.48166725
315,3.149999999999977,0.076102,0.339593,-0.06500379,0.5056437,0.43050727,0.48166725
316,3.1599999999999766,0.038355898,0.16452178,-0.034026377,-0.03390302,0.73563445,-0.44532076
317,3.1699999999999764,0.038355898,0.16452178,-0.034026377,-0.03390302,0.73563445,-0.44532076
318,3.179999999999976,0.026403978,0.06415008,-0.0017074167,-0.22174409,0.9388999,-0.82909685
319,3.189999999999976,0.026403978,0.06415008,-0.0017074167,-0.22174409,0.9388999,-0.82909685
320,3.1999999999999758,0.04189269,0.019391375,-0.011220166,-0.25961772,0.99097615,-0.91645056
321,3.2099999999999755,0.5746067,-1.8319361,-1.7194296,-3.0418036,27.522991,-3.7809505
322,3.2199999999999753,1.6654631,-5.907601,-5.0622463,-0.19517145,21.992828,-4.875621
323,3.229999999999975,1.8451686,-6.80808,0.15269183,3.7281106,7.230812,-5.1656294
324,3.239999999999975,1.8451686,-6.80808,0.15269183,3.7281106,7.230812,-5.1656294
325,3.2499999999999747,1.8451686,-6.80808,0.15269183,3.7281106,7.230812,-5.1656294
326,3.2599999999999745,2.3696504,-7.1210256,1.3848978,0.10751228,-12.824352,0.24633141
327,3.2699999999999743,1.4447794,-3.9997456,1.4064845,0.10751228,-12.824352,0.24633141
328,3.279999999999974,0.5714967,-2.3309898,0.6808324,5.3033795,-5.461746,0.3184135
329,3.289999999999974,0.14025208,-1.5855803,0.21903718,5.3033795,-5.461746,0.3184135
330,3.2999999999999736,-0.045795355,-0.5407023,-0.02713573,5.9518127,-2.9255865,0.69989884
331,3.3099999999999734,-0.045795355,-0.5407023,-0.02713573,5.9518127,-2.9255865,0.69989884
332,3.319999999999973,-0.056344748,-0.17470531,-0.017135147,5.760917,-2.6277895,0.68523806
333,3.329999999999973,-0.056344748,-0.17470531,-0.017135147,5.760917,-2.6277895,0.68523806
334,3.3399999999999728,-0.056344748,-0.17470531,-0.017135147,5.760917,-2.6277895,0.68523806
335,3.3499999999999726,-0.07268717,-0.14067894,-0.009939604,5.837581,-2.1591032,0.3950771
336,3.3599999999999723,-0.2961758,-0.076102,-1.1739099,5.4337993,-1.779756,0.22831088
337,3.369999999999972,-0.41173133,0.0059759584,-1.460512,3.9145772,-4.392732,0.3297145
338,3.379999999999972,-0.4414282,0.042136606,-0.94029874,2.5798366,-6.743647,0.20143281
339,3.3899999999999717,-0.34983748,0.09671296,-0.22025676,1.804954,-7.9907284,-0.35262197
340,3.3999999999999715,-1.8335825,0.42825672,-0.36983865,1.3921618,-7.5533485,-0.71669763
341,3.4099999999999713,-3.4958136,0.7048582,-0.5774727,1.3921618,-7.5533485,-0.71669763
342,3.419999999999971,-2.4897795,0.8113888,-0.44057447,0.4801401,-5.746104,0.3651447
343,3.429999999999971,-1.8341315,0.81803554,-0.4004502,-0.9954049,-4.2209263,2.036472
344,3.4399999999999706,-1.0440243,0.6304027,-0.38923004,-1.8634444,-2.5274549,2.6713138
345,3.4499999999999704,-0.5801558,0.44734317,-0.30635932,-2.503784,-1.0763446,2.8055513
346,3.45999999999997,-0.29690757,0.3480691,-0.20434119,-3.199254,0.30558532,2.6230555
347,3.46999999999997,-0.19007207,0.27879676,-0.12153149,-3.619682,1.1665999,2.3770294
348,3.47999999999997,-0.14531335,0.24428254,-0.04610025,-3.8799107,1.7540996,2.1184807
349,3.4899999999999696,-0.20623155,0.23531862,0.010915271,-4.084703,2.1930063,1.7789923
350,3.4999999999999694,-0.26861322,0.26330805,0.05744238,-4.188703,2.1079433,1.6710218
351,3.509999999999969,-0.32416525,0.26068595,0.09372498,-4.2206206,1.6621643,1.6297885
352,3.519999999999969,-0.28111395,0.23867247,0.13586158,-4.220773,1.2263119,1.6071864
353,3.5299999999999687,-0.16110696,0.08744413,0.3187381,-4.1242566,0.6568329,1.5526668
354,3.5399999999999685,-0.16110696,0.08744413,0.3187381,-3.4066427,-0.6070473,1.3764321
355,3.5499999999999683,-0.048051585,-0.056771606,0.40788963,-3.4066427,-0.6070473,1.3764321
356,3.559999999999968,-0.040124293,-0.05921077,0.39337662,-2.3661866,0.38881573,1.031446
357,3.569999999999968,-0.040124293,-0.05921077,0.39337662,-2.3661866,0.38881573,1.031446
358,3.5799999999999677,-0.49380928,-0.25531977,0.5993643,-2.3661866,0.38881573,1.031446
359,3.5899999999999674,-1.2621468,-1.2013506,1.4311811,-0.14676037,5.1778464,1.081995
360,3.5999999999999672,-0.8178526,-5.45794,1.4943554,2.6904032,10.903181,0.2762638
361,3.609999999999967,-1.8223624,-8.968816,0.8700507,4.897154,13.935974,-1.0520626
362,3.619999999999967,-1.7107097,-13.972888,-1.0770141,4.897154,13.935974,-1.0520626
363,3.6299999999999666,1.6047888,-10.529334,-5.5805693,10.085843,-9.934807,1.5537357
364,3.6399999999999664,1.6047888,-10.529334,-5.5805693,10.085843,-9.934807,1.5537357
365,3.649999999999966,0.87999034,-2.2654982,-1.4834403,-3.6529741,-7.382001,-2.7041478
366,3.659999999999966,0.36191136,-0.9448722,0.19342592,-2.6371052,-0.27412578,-2.6450465
367,3.6699999999999657,0.24623388,-0.6494891,0.2821506,-1.8683313,1.6581937,-2.5685356
368,3.6799999999999655,0.20647547,-0.3088595,0.20110929,-1.1255192,3.28279,-2.4715607
369,3.6899999999999653,0.17135146,-0.12451946,0.14775252,-0.7150178,4.1703773,-2.4126122
370,3.699999999999965,0.10909174,0.014817937,0.09963996,-0.45799622,4.8177414,-2.370768
371,3.709999999999965,0.07476046,0.046283185,0.09793254,-0.36850446,5.0868278,-2.3335052
372,3.7199999999999647,0.0015244792,0.071467586,0.049637042,-0.36850446,5.0868278,-2.3335052
373,3.7299999999999645,0.02426971,0.07555319,0.060491335,-0.36850446,5.0868278,-2.3335052
374,3.7399999999999642,-0.037075333,0.08439517,0.050978586,-0.10247265,6.06803,-1.9773707
375,3.749999999999964,-0.05652769,0.092078544,0.0395145,0.06963864,5.9182153,-1.6759088
376,3.759999999999964,-0.05652769,0.092078544,0.0395145,0.06963864,5.9182153,-1.6759088
377,3.7699999999999636,-0.059759583,0.10464026,0.015488708,-0.010995574,5.4812937,-1.34314
378,3.7799999999999634,-0.07622396,0.14147167,-0.01536675,-0.10919216,5.224578,-1.1995866
379,3.789999999999963,-0.10232304,0.19342592,-0.024574606,-0.46105054,4.6331077,-1.0073168
380,3.799999999999963,-0.13525179,0.20739016,-0.005061271,-0.84574294,3.8229475,-0.77396625
381,3.8099999999999627,-0.18104716,0.27080846,-0.04481969,-1.3084733,2.8196013,-0.56107974
382,3.8199999999999625,-0.20507295,0.2859923,0.012256813,-1.9836322,1.3498595,-0.26450464
383,3.8299999999999623,-0.20507295,0.2859923,0.012256813,-2.3663392,0.08323039,0.017256944
384,3.839999999999962,-0.26611307,0.23605035,0.35191077,-2.4254405,-1.2921327,0.3932445
385,3.849999999999962,-0.17452239,0.19220634,0.33093393,-2.1870503,-2.9350548,0.9434814
386,3.8599999999999617,-0.13019052,0.17476629,0.29166338,-1.9981402,-3.6731327,1.2449434
387,3.8699999999999615,-0.08848077,0.21824445,0.24135554,-1.8118263,-4.2707114,1.5862644
388,3.8799999999999613,-0.06872352,0.31733558,0.25300255,-1.721571,-4.5139885,1.760361
389,3.889999999999961,-0.016708292,0.35727695,0.29544407,-1.5047138,-4.8881435,2.021353
390,3.899999999999961,0.06774786,0.25672227,0.24050182,-1.2432635,-5.052314,2.1558962
391,3.9099999999999606,0.07713865,0.24391668,0.18275456,-0.9761627,-4.935791,2.1901047
392,3.9199999999999604,0.07713865,0.24391668,0.18275456,-0.8144361,-4.757724,2.1768184
393,3.92999999999996,0.10037171,0.25031948,0.1478135,-0.6571383,-4.2650614,2.0694587
394,3.93999999999996,0.1367153,0.2528806,0.12086072,-0.59727347,-3.7487273,1.8266398
395,3.9499999999999598,0.17226616,0.20915854,0.1012864,-0.6382015,-3.522249,1.6151277
396,3.9599999999999596,0.15775311,0.06780884,0.12482436,-0.71975195,-3.143207,0.77488256
397,3.9699999999999593,0.15775311,0.06780884,0.12482436,-0.71975195,-3.143207,0.77488256
398,3.979999999999959,0.057503358,-0.04183171,0.022318374,-0.8738427,-2.346639,0.36942077
399,3.989999999999959,0.04896627,-0.09963996,0.08238286,-0.956615,-1.8542814,0.2666427
400,3.9999999999999587,0.0219525,-0.4238662,0.104152426,-0.11010846,-0.39278635,0.23044892
401,4.009999999999959,-0.41929275,-6.7318563,-13.089788,-6.5521407,-6.881244,1.387275
402,4.019999999999959,-0.41929275,-6.7318563,-13.089788,-6.5521407,-6.881244,1.387275
403,4.0299999999999585,0.37130213,-1.2595856,0.96389776,7.5554867,3.6726747,1.0377073
404,4.039999999999958,0.24129456,-0.89560103,0.7319939,7.914065,3.7187948,1.0360274
405,4.049999999999958,0.8491959,-1.9475526,0.71693206,8.600525,3.658472,1.0198395
406,4.059999999999958,0.22574489,-6.033584,1.4416695,8.236907,4.030489,-0.73456544
407,4.069999999999958,0.46405149,-6.446047,1.249829,6.9473705,5.877745,-0.7075347
408,4.079999999999957,-0.04908823,-7.1814556,0.28739482,1.4700472,5.5637608,-0.6417139
409,4.089999999999957,-0.2822116,-5.8732696,1.1992773,-2.3973405,4.464814,-0.8573494
410,4.099999999999957,-0.1516552,-2.0966468,1.1175652,-3.1393893,3.2249103,-0.93279123
411,4.109999999999957,-0.1516552,-2.0966468,1.1175652,-1.9776763,2.373975,-0.9622655
412,4.119999999999957,0.10866488,-0.7153466,0.23141594,-0.38728857,0.6805039,-1.5092953
413,4.129999999999956,0.071162686,-0.4726495,0.13592257,-0.2582433,0.52732944,-1.5922203
414,4.139999999999956,0.073540874,-0.21726878,-0.011403104,-0.2582433,0.52732944,-1.5922203
415,4.149999999999956,0.073540874,-0.21726878,-0.011403104,-0.08933904,0.38163805,-1.7924314
416,4.159999999999956,-0.008415125,0.05963763,0.026769854,0.5551238,0.73716164,-1.8558086
417,4.1699999999999555,0.07585809,0.17836407,0.105067104,1.703245,-1.1890492,-1.8994855
418,4.179999999999955,0.07585809,0.17836407,0.105067104,1.703245,-1.1890492,-1.8994855
419,4.189999999999955,0.07585809,0.17836407,0.105067104,2.6123652,-3.2157474,-1.9990565
420,4.199999999999955,0.07585809,0.17836407,0.105067104,2.6123652,-3.2157474,-1.9990565
421,4.209999999999955,0.058174126,0.13762999,0.04841746,3.453374,-5.7850466,-2.3585508
422,4.2199999999999545,-0.25275865,0.13116619,-0.30257863,3.1656563,-6.6767573,-3.050661
423,4.229999999999954,-0.27672347,0.15598471,-0.2573321,2.7609582,-7.2715874,-3.234226
424,4.239999999999954,-2.7190611,0.56393534,-0.27318668,2.4992025,-7.294342,-3.4804046
425,4.249999999999954,-2.7190611,0.56393534,-0.27318668,2.4329236,-6.285345,-2.6897924
426,4.259999999999954,-2.8315675,0.7011995,0.032501895,2.6213756,-4.2968264,0.57696223
427,4.269999999999953,-2.1293316,0.649733,-0.02414775,3.1622968,-2.4827092,2.4544566
428,4.279999999999953,-1.6880863,0.5350312,-0.16257046,3.554014,-0.45463645,3.5984545
429,4.289999999999953,-0.07402871,0.3310559,-1.1984235,3.2073479,0.4280638,4.3316455
430,4.299999999999953,0.28489465,0.28666306,-0.8453542,0.50778174,-2.5192082,3.1253393
431,4.3099999999999525,0.04170975,0.27727225,-0.4422819,-0.021685716,-3.6499197,2.5676193
432,4.319999999999952,0.04170975,0.27727225,-0.4422819,-0.021685716,-3.6499197,2.5676193
433,4.329999999999952,-0.2420873,0.29727346,-0.045734376,-0.38683042,-3.506672,1.9836322
434,4.339999999999952,-0.14244732,0.24269708,0.064089105,-0.528093,-2.958726,1.7443258
435,4.349999999999952,-0.14244732,0.24269708,0.064089105,-0.528093,-2.958726,1.7443258
436,4.3599999999999515,0.0038416875,0.055795938,0.02207446,-1.7150042,0.11255192,0.44089198
437,4.369999999999951,-0.020001167,0.0006707709,0.049759,-1.9393444,0.8246681,0.16493362
438,4.379999999999951,-0.0787241,-0.061527982,0.05921077,-2.122146,1.8092301,-0.2218968
439,4.389999999999951,-0.10738432,-0.07585809,0.056649648,-2.1355848,2.205529,-0.34101552
440,4.399999999999951,-0.18196183,-0.096895896,0.019635292,-2.1355848,2.205529,-0.34101552
441,4.40999999999995,-0.66747797,-0.2719061,0.03298973,-2.3156374,3.604563,-0.29657507
442,4.41999999999995,-0.66747797,-0.2719061,0.03298973,-2.3156374,3.604563,-0.29657507
443,4.42999999999995,-1.7794331,-1.63912,0.12689765,-3.402672,7.679034,2.601217
444,4.43999999999995,-0.24818522,-8.702458,2.1675656,-2.1455114,10.770471,1.2385293
445,4.4499999999999496,-0.25653934,-13.535851,1.8156546,2.5505152,12.41889,1.4521794
446,4.459999999999949,0.87675846,-12.282363,0.41301188,4.1386123,7.447669,1.3932309
447,4.469999999999949,1.873219,-5.6771607,-0.70498013,2.848312,2.0787745,-0.09132435
448,4.479999999999949,1.3769706,-2.1954331,-0.9584096,1.1023064,-2.2050707,-2.1241312
449,4.489999999999949,0.99024075,-1.3254431,-0.96517825,-0.019242255,-3.145956,-2.8710666
450,4.4999999999999485,0.3637407,-0.5071027,-0.5044197,-1.8428277,-2.7466028,-3.244
451,4.509999999999948,0.12342183,-0.19738956,-0.1408009,-2.5207355,-1.6470454,-2.928488
452,4.519999999999948,0.10049367,0.0005488125,0.09049308,-2.9254336,-0.079107046,-2.3932173
453,4.529999999999948,0.1557408,0.04835648,0.14159364,-3.1485522,0.82818055,-2.0864103
454,4.539999999999948,0.007256521,0.06475988,0.06390616,-3.30753,1.941177,-1.5169312
455,4.549999999999947,0.007256521,0.06475988,0.06390616,-3.30753,1.941177,-1.5169312
456,4.559999999999947,-0.008720021,0.21293926,0.115006715,-3.207806,2.0790799,-1.1534663
457,4.569999999999947,-0.0009146876,0.13061738,0.11464083,-2.9599476,2.2820399,-0.45173484
458,4.579999999999947,0.012378771,0.14494748,0.13702019,-2.9329166,2.502104,-0.3191771
459,4.589999999999947,0.028355313,0.25336844,0.18214478,-2.8283062,2.8170052,0.00076358154
460,4.599999999999946,-0.011159187,0.272272,0.22489117,-2.7123945,2.663067,0.27977628
461,4.609999999999946,-0.009207855,0.2748941,0.42173192,-2.5273023,2.248595,0.6081163
462,4.619999999999946,0.006524771,0.25903952,0.46496618,-2.453235,2.097864,0.6910413
463,4.629999999999946,0.10543298,0.31806734,0.5871074,-1.6067283,0.70371675,1.0422888
464,4.6399999999999455,0.1220803,0.27141827,0.60631585,-0.8029824,-0.5847508,1.2324207
465,4.649999999999945,0.15336262,0.29398057,0.5819852,-0.38759398,-1.1154399,1.2983941
466,4.659999999999945,0.2145247,0.26653996,0.5741799,0.40744713,-1.9220876,1.3019066
467,4.669999999999945,0.21239044,0.2836141,0.43654984,1.0720685,-2.4758368,1.2741122
468,4.679999999999945,0.20025559,0.24964872,0.35349622,1.5387696,-2.770732,1.2305881
469,4.689999999999944,0.19488941,0.26885715,0.28885832,1.7602082,-2.8499918,1.1895074
470,4.699999999999944,0.15110639,0.18866955,0.12958074,2.530662,-2.7759244,0.8918633
471,4.709999999999944,0.0617719,0.2991028,-0.009329813,2.751337,-2.479502,0.6937902
472,4.719999999999944,0.0617719,0.2991028,-0.009329813,2.8512135,-2.0825922,0.4738787
473,4.729999999999944,0.054881252,0.46185625,-0.058418043,2.4877486,-1.6920967,0.32436943
474,4.739999999999943,0.1030548,0.5046026,-0.031709168,2.189799,-1.622,0.26832256
475,4.749999999999943,0.14586218,0.51557887,-0.027989438,1.8196149,-1.502423,0.1591304
476,4.759999999999943,0.14586218,0.51557887,-0.027989438,1.4706581,-1.430341,0.02687807
477,4.769999999999943,0.08781,0.44087937,-0.12366576,0.8536842,-1.6701056,-0.13255776
478,4.7799999999999425,0.08866371,0.40002334,-0.091956586,0.07696902,-2.1830797,-0.2883284
479,4.789999999999942,0.09159071,0.34105647,-0.10531103,-0.25671613,-2.3695462,-0.3837761
480,4.799999999999942,0.09159071,0.34105647,-0.10531103,-3.4440582,-0.27550024,-1.0291553
481,4.809999999999942,0.5177741,-3.0288963,-5.479039,-11.935238,10.461831,-2.7942502
482,4.819999999999942,0.09921311,-1.2855629,0.09848136,-14.749188,14.069906,-4.729166
483,4.8299999999999415,0.022318374,-1.3595306,0.42850062,-12.772276,13.388945,-6.317874
484,4.839999999999941,1.2187296,-2.760161,-2.868643,-12.772276,13.388945,-6.317874
485,4.849999999999941,4.472273,-7.586174,-3.3765996,-11.536649,10.467482,-7.0173144
486,4.859999999999941,1.4499626,-3.2366524,2.403921,3.705356,7.797542,-3.275612
487,4.869999999999941,0.3358123,-2.1423202,1.14153,7.59672,0.6542367,7.93178
488,4.87999999999994,-0.122324206,-1.8607793,0.76656914,7.4997454,0.37797287,9.581421
489,4.88999999999994,1.7936412,-2.5529537,0.70071167,7.4997454,0.37797287,9.581421
490,4.89999999999994,2.1332343,-2.7491238,0.73626244,7.0609913,-4.240932,8.126035
491,4.90999999999994,2.1332343,-2.7491238,0.73626244,7.05305,-6.213263,6.0078597
492,4.9199999999999395,1.0353043,-2.1672606,0.1094576,6.591847,-7.350847,4.4031167
493,4.929999999999939,0.77632576,-1.8715726,-0.049332146,5.5466566,-8.253859,3.630983
494,4.939999999999939,0.77632576,-1.8715726,-0.049332146,5.5466566,-8.253859,3.630983
495,4.949999999999939,0.10488417,-0.7283352,-0.018964522,2.7334692,-6.5866547,2.4061983
496,4.959999999999939,0.042319544,-0.5000902,0.010732334,1.930945,-5.294522,2.1951442
497,4.9699999999999385,0.025306353,-0.23092812,-0.058966853,1.4566082,-4.3432517,2.0549507
498,4.979999999999938,-0.01597654,-0.09031015,-0.056771606,1.0655017,-3.385415,1.8968893
499,4.989999999999938,-0.029452939,-0.06061329,-0.04164877,0.89568114,-2.8629727,1.7835737
500,4.999999999999938,-0.051710334,-0.029026084,-0.029087063,0.7840455,-2.4744625,1.7127135
501,5.009999999999938,-0.029818814,-0.00048783334,0.0078053335,0.7086037,-2.0076087,1.6442965
502,5.019999999999937,-0.040978,-0.0049393126,0.004817354,0.73563445,-1.6132951,1.5375478
503,5.029999999999937,-0.030306645,-0.0043905,0.009268833,0.7680103,-1.4874569,1.4932601
504,5.039999999999937,-0.011220166,0.016159479,-0.010732334,0.87872964,-1.2331842,1.2910637
505,5.049999999999937,0.053783625,0.15702136,-0.112201676,0.6388123,-1.0134255,0.30573806
506,5.0599999999999365,0.07000408,0.17720546,-0.09134679,-0.08002335,-0.36880988,-0.95004815
507,5.069999999999936,0.059942525,0.17171735,-0.10451829,-0.08002335,-0.36880988,-0.95004815
508,5.079999999999936,0.08299265,0.16061912,-0.11439692,-0.41386122,-0.2950479,-1.5531249
509,5.089999999999936,-0.011768979,0.17324181,-0.09695688,-1.2530373,-0.32146785,-3.3713653
510,5.099999999999936,-0.32300666,0.33806852,-0.072870106,-1.2530373,-0.32146785,-3.3713653
511,5.1099999999999355,-1.1862887,0.5361288,-0.038172957,-1.329701,1.0604621,-4.4429755
512,5.119999999999935,-1.1862887,0.5361288,-0.038172957,-1.329701,1.0604621,-4.4429755
513,5.129999999999935,-1.4525847,0.43923298,0.48423555,-0.40759984,3.7679696,-3.3400583
514,5.139999999999935,-1.7197344,0.3150184,0.38593715,0.28787026,4.148233,-1.8984165
515,5.149999999999935,-1.7197344,0.3150184,0.38593715,0.28787026,4.148233,-1.8984165
516,5.159999999999934,-1.7197344,0.3150184,0.38593715,0.28787026,4.148233,-1.8984165
517,5.169999999999934,-1.7197344,0.3150184,0.38593715,0.28787026,4.148233,-1.8984165
518,5.179999999999934,-1.3565426,-0.5927175,-0.33593425,0.22586742,5.3343806,1.2672399
519,5.189999999999934,-2.101525,-1.3968499,-0.72577405,-0.34956762,4.4032693,2.2119431
520,5.199999999999934,-2.3955054,-3.409894,-1.2902582,-2.4263568,1.4764613,3.6091447
521,5.209999999999933,2.2139096,-9.438661,-3.4403224,-6.2158594,-5.4437256,2.1041253
522,5.219999999999933,0.4809427,-10.087235,-1.6495476,-8.542339,-14.609758,1.8005253
523,5.229999999999933,0.25251475,-7.2388983,0.33886123,-5.687766,-21.547813,4.922505
524,5.239999999999933,0.7683985,-2.7138777,0.51942056,-4.0700426,-21.614857,4.6712866
525,5.2499999999999325,0.7683985,-2.7138777,0.51942056,1.4237741,-16.657074,2.6326766
526,5.259999999999932,0.62735367,-1.1734221,-0.88736886,4.8414125,-6.881397,1.3808609
527,5.269999999999932,0.62735367,-1.1734221,-0.88736886,4.8414125,-6.881397,1.3808609
528,5.279999999999932,0.50923705,-0.65576994,-1.0790873,4.2507057,0.8025242,0.7852673
529,5.289999999999932,0.354167,-0.33325115,-0.37654635,2.5876253,6.4936504,0.16157386
530,5.299999999999931,0.17080265,0.0026830835,0.024330689,1.5554156,7.862141,-0.22479841
531,5.309999999999931,0.17080265,0.0026830835,0.024330689,1.5554156,7.862141,-0.22479841
532,5.319999999999931,0.14384985,0.042014647,0.018293751,1.4205672,7.3377132,-0.16233744
533,5.329999999999931,0.13238578,0.06927233,0.023659917,1.4205672,7.3377132,-0.16233744
534,5.339999999999931,0.14543532,0.09177365,0.023050126,1.3695599,7.089702,-0.11636983
535,5.34999999999993,0.09781059,0.20928052,-0.009573729,1.2073752,6.867958,0.041233405
536,5.35999999999993,0.09781059,0.20928052,-0.009573729,0.9072876,6.531982,0.26832256
537,5.36999999999993,0.12390967,0.24958774,0.03305071,0.3016147,5.3777523,0.61300325
538,5.37999999999993,0.14159364,0.28062615,0.100127794,0.1226312,5.026352,0.68676525
539,5.3899999999999295,0.2189152,0.30288354,0.20732918,-0.089949906,3.9046507,0.79519385
540,5.399999999999929,0.2119026,0.2748331,0.14330104,-0.495259,2.495079,0.9231701
541,5.409999999999929,0.1943406,0.21879324,0.17836407,-0.8565858,1.1696543,0.998612
542,5.419999999999929,0.2133661,0.18891345,0.24178241,-1.0764973,-0.3915646,1.0512991
543,5.429999999999929,0.20617057,0.17421748,0.24141651,-1.1113166,-1.1204796,1.0542006
544,5.4399999999999284,0.2406238,0.17921777,0.3533133,-1.0792462,-2.078469,1.0044152
545,5.449999999999928,0.23348923,0.17342475,0.389352,-0.94897914,-2.4145975,0.9613492
546,5.459999999999928,0.26629603,0.1783031,0.32239684,-0.8025242,-2.6285532,0.90194255
547,5.469999999999928,0.27239394,0.17757133,0.24446549,-0.77381355,-2.6723828,0.8755226
548,5.479999999999928,0.28757775,0.17702252,0.19007207,-1.1247556,-2.3667974,1.0065532
549,5.489999999999927,0.339593,0.111896776,0.1445816,-1.1247556,-2.3667974,1.0065532
550,5.499999999999927,0.339593,0.111896776,0.1445816,-1.3787229,-2.0960314,1.1187997
551,5.509999999999927,0.3876446,0.0714066,0.18604743,-1.3787229,-2.0960314,1.1187997
552,5.519999999999927,0.40703595,0.030184686,0.22281788,-1.8915442,-1.0861185,1.1910346
553,5.5299999999999265,0.43850118,0.009085896,0.26086888,-2.005318,-0.7316638,1.1313224
554,5.539999999999926,0.56161815,-0.04183171,0.5566178,-1.600467,0.3849978,0.18845193
555,5.549999999999926,0.56161815,-0.04183171,0.5566178,-1.600467,0.3849978,0.18845193
556,5.559999999999926,0.2836141,-0.20385335,0.72540814,-0.49220467,2.5373814,-0.8727737
557,5.569999999999926,0.090919934,-0.22702545,0.4089263,-0.10644327,3.571118,-0.9627236
558,5.5799999999999255,-1.1956794,-3.102925,-9.380609,-7.1674347,0.6032294,-0.19501872
559,5.589999999999925,-1.2688545,-5.329335,0.8327925,-6.1054454,-16.74565,2.208736
560,5.599999999999925,-4.4317217,-8.844113,4.279884,5.7403007,-15.956105,6.5608454
561,5.609999999999925,-4.94291,-10.114187,2.853764,9.430996,-5.3559136,10.665708
562,5.619999999999925,-1.7344915,-10.126811,-0.030489584,9.358608,8.092284,13.156968
563,5.629999999999924,-0.12159246,-5.4372077,-3.001212,9.358608,8.092284,13.156968
564,5.639999999999924,-0.12159246,-5.4372077,-3.001212,-2.1673498,1.1837041,-7.3262596
565,5.649999999999924,-2.7030845,-2.2565951,0.095493376,-2.1713204,-0.6914995,-5.6944857
566,5.659999999999924,-2.7030845,-2.2565951,0.095493376,2.3671029,11.838874,-0.32910365
567,5.6699999999999235,-0.85883063,-0.5943639,0.15787506,-1.187522,-0.044593163,-3.013551
568,5.679999999999923,-0.34562993,-0.12714157,0.17818113,-0.60032785,0.2443461,-2.4239132
569,5.689999999999923,-0.28111395,-0.042624436,0.26062497,-0.03176499,0.7292204,-2.2437081
570,5.699999999999923,-0.14756958,0.112689495,0.263491,1.3842206,2.4619396,-1.9874501
571,5.709999999999923,-0.045917314,0.19409668,0.09000525,2.4365888,3.6173913,-1.8484782
572,5.7199999999999225,0.14531335,0.503444,-0.45764863,2.876717,2.1468859,-2.7094927
573,5.729999999999922,0.079089984,0.58168024,-0.4124631,2.7692049,1.2689198,-3.2656856
574,5.739999999999922,0.079089984,0.58168024,-0.4124631,2.7273605,-0.20525073,-4.442823
575,5.749999999999922,-0.5146032,0.8337072,-0.17153439,2.6714664,-1.3025174,-4.96832
576,5.759999999999922,-0.5146032,0.8337072,-0.17153439,2.6714664,-1.3025174,-4.96832
577,5.769999999999921,-0.3949011,0.7574832,-0.15092343,2.4937046,-2.2133174,-5.2018228
578,5.779999999999921,-0.72729856,1.3650796,-0.17336378,1.9106338,-4.063323,-4.886006
579,5.789999999999921,-0.99207014,1.6780248,-0.2520269,1.0122037,-5.4283013,-3.852269
580,5.799999999999921,-1.1289073,1.7291863,-0.2973954,0.3631594,-5.6138515,-2.8206704
581,5.809999999999921,-1.1289073,1.7291863,-0.2973954,-0.22159137,-4.426177,-1.1727085
582,5.81999999999992,-1.1617141,1.5983859,-0.29904184,-0.36987892,-2.7064385,0.14049901
583,5.82999999999992,-0.7805943,1.0645133,-0.17409553,-0.3454443,-1.4257594,0.9795224
584,5.83999999999992,-0.17458336,0.61601156,-0.31361586,-0.32452217,0.084910266,2.130698
585,5.84999999999992,-0.04085604,0.47069818,-0.44155017,-0.58016926,-0.10445796,2.2901337
586,5.8599999999999195,-0.09342009,0.33739772,-0.27330863,-0.89873546,-0.49938235,2.399784
587,5.869999999999919,-0.08738314,0.2532465,-0.0918956,-0.93279123,-0.39935315,2.4469736
588,5.879999999999919,-0.008476105,0.09323715,0.011220166,-0.8857546,-0.2648101,2.411238
589,5.889999999999919,0.008293167,0.06213777,0.011281146,-0.6047566,0.56077427,1.6633861
590,5.899999999999919,0.015854584,0.028050419,0.0059759584,-0.54000485,0.8597928,1.2991576
591,5.909999999999918,0.014635001,0.00024391667,-0.0049393126,-0.505491,1.1632402,0.86132
592,5.919999999999918,0.014635001,0.00024391667,-0.0049393126,-0.505491,1.1632402,0.86132
593,5.929999999999918,-0.105067104,-0.08781,0.0037197291,-0.537256,1.4388931,0.08811731
594,5.939999999999918,-0.35337427,-0.25281963,0.053478733,-0.5355761,1.5386169,-0.1301143
595,5.949999999999918,-1.5977762,-0.97938645,0.638086,-0.22922719,2.3600779,0.23060162
596,5.959999999999917,-4.469224,-3.2886674,1.5294795,0.46471575,4.1664066,1.952478
597,5.969999999999917,-4.469224,-3.2886674,1.5294795,0.46471575,4.1664066,1.952478
598,5.979999999999917,-3.055849,-10.763189,-0.79760754,2.1497874,9.507506,14.431844
599,5.989999999999917,-0.8140109,-9.773741,-0.6630265,1.8782579,-0.30100384,4.033849
600,5.9999999999999165,-2.3028173,-5.412694,0.4004502,1.4277447,-3.8822014,-1.1291844
601,6.009999999999916,-0.98097193,-2.8973033,0.33062905,1.0589349,-3.065169,-0.94027436
602,6.019999999999916,-0.2798334,-1.8340095,0.016647313,0.9773844,-2.370768,-0.6769914
603,6.029999999999916,0.27379647,-0.75272685,-0.58168024,0.8588765,-0.26740626,-0.75976366
604,6.039999999999916,0.35264254,-0.63509804,-0.58241206,0.72066826,0.90209526,-0.86574876
605,6.0499999999999154,0.2862972,-0.19403571,-0.15135029,0.21181752,3.0002646,-1.2226468
606,6.059999999999915,0.24781933,-0.082199916,-0.021098793,-0.07223482,3.0211868,-1.4813483
607,6.069999999999915,0.39788908,-0.042380523,0.10616472,-0.29428434,2.2806654,-1.916437
608,6.079999999999915,0.38575423,0.008476105,0.17214419,-0.22770002,2.0476203,-2.1071796
609,6.089999999999915,0.38575423,0.008476105,0.17214419,-0.22770002,2.0476203,-2.1071796
610,6.099999999999914,0.34758124,0.07860215,0.09488358,-0.0954477,2.1919372,-2.4923303
611,6.109999999999914,0.34758124,0.07860215,0.09488358,-0.0954477,2.1919372,-2.4923303
612,6.119999999999914,0.41898784,0.16019227,0.024452647,-0.0954477,2.1919372,-2.4923303
613,6.129999999999914,0.42307347,0.16842447,-0.0009756667,-0.0954477,2.1919372,-2.4923303
614,6.1399999999999135,0.3286777,0.13372731,0.00048783334,-0.0954477,2.1919372,-2.4923303
615,6.149999999999913,0.32953143,0.11305538,0.07774844,-0.9091202,1.0806206,-1.8383989
616,6.159999999999913,0.38032708,0.11756783,0.16055815,-1.0795516,0.84696466,-1.509448
617,6.169999999999913,0.456612,0.14031307,0.2731257,-1.2020301,0.37293324,-1.2916746
618,6.179999999999913,0.56795996,0.19135264,0.31745756,-1.1917981,-0.2078469,-1.231657
619,6.1899999999999125,0.59832764,0.24611193,0.32099435,-1.1403327,-1.7084373,-0.9622655
620,6.199999999999912,0.6073525,0.2967856,0.29898086,-1.0816896,-3.0173688,-0.68477994
621,6.209999999999912,0.50704175,0.2804432,0.26214942,-1.0149527,-3.8990002,-0.47158796
622,6.219999999999912,0.42343935,0.2651374,0.20153615,-0.86299986,-4.323857,-0.33673948
623,6.229999999999912,0.33373898,0.24105065,0.16635117,-0.77763146,-4.2928557,-0.32528573
624,6.239999999999911,0.08579769,0.12372673,0.07128465,-0.23151793,-3.3018794,-0.33215797
625,6.249999999999911,0.08579769,0.12372673,0.07128465,-0.23151793,-3.3018794,-0.33215797
626,6.259999999999911,0.034514207,0.15702136,0.06500379,-0.01038471,-2.8819096,-0.35811976
627,6.269999999999911,0.02201348,0.2948343,0.05927175,0.46670106,-1.9845484,-0.5852089
628,6.2799999999999105,-0.09518848,0.19610901,-0.25599056,0.7722864,-0.7322747,-1.0496192
629,6.28999999999991,-1.650767,-0.12421457,-1.5292965,-0.29626966,1.2857187,-0.48716503
630,6.29999999999991,-1.650767,-0.12421457,-1.5292965,-0.29626966,1.2857187,-0.48716503
631,6.30999999999991,0.038599815,-0.24446549,-0.2122075,-4.575839,7.720726,3.5184312
632,6.31999999999991,0.038599815,-0.24446549,-0.2122075,-4.690529,7.5629697,3.0327933
633,6.3299999999999095,1.2705619,0.004268542,1.1045157,-4.690529,7.5629697,3.0327933
634,6.339999999999909,1.1584822,-0.10957957,0.4776498,-2.2531765,3.4663548,0.100792766
635,6.349999999999909,0.6857108,-2.0067024,-7.2047496,-2.2531765,3.4663548,0.100792766
636,6.359999999999909,1.1811055,-2.5831995,-2.1729317,-10.602483,22.262373,-3.568522
637,6.369999999999909,0.28989497,-6.475744,-7.636238,-2.9437597,32.74421,-6.009998
638,6.379999999999908,1.0629889,-4.156767,1.5152103,6.1103325,1.8330538,-3.2750013
639,6.389999999999908,1.1783004,-4.3359237,1.6477182,6.810231,-3.1574097,-2.6885707
640,6.399999999999908,1.3284922,-6.32293,0.7574832,6.0929227,-8.454986,-0.66737026
641,6.409999999999908,1.3022711,-6.5116606,0.611865,4.8417177,-9.808663,1.1653782
642,6.419999999999908,1.1309197,-5.567581,0.51228595,3.549585,-10.621725,2.4010057
643,6.429999999999907,0.7560197,-3.4870934,0.45716083,2.4243715,-8.536841,3.1279354
644,6.439999999999907,0.3374587,-2.2642784,0.35556954,2.3947444,-7.756614,3.4168746
645,6.449999999999907,-0.11708001,-0.6690025,0.06530869,3.4353535,-6.1636305,3.9393172
646,6.459999999999907,-0.14622805,-0.45978296,0.026403978,3.4353535,-6.1636305,3.9393172
647,6.4699999999999065,-0.08116327,-0.23684308,-0.029757833,3.8647916,-5.393024,4.061185
648,6.479999999999906,-0.08116327,-0.23684308,-0.029757833,3.8647916,-5.393024,4.061185
649,6.489999999999906,-0.08774903,-0.20952442,-0.021403689,4.0080395,-5.017494,3.994448
650,6.499999999999906,-0.107628234,-0.18068127,0.047258858,4.2617016,-4.537507,3.1598532
651,6.509999999999906,-0.24720955,0.11701902,-1.7959584,4.2617016,-4.537507,3.1598532
652,6.519999999999905,-0.22202514,0.17494924,-1.7169905,1.5250251,-9.302408,1.8727602
653,6.529999999999905,-0.030306645,0.1671439,-0.43770844,1.2379184,-9.557903,1.2528846
654,6.539999999999905,0.035367917,0.4724056,-0.21178065,0.1873829,-9.647395,-1.0068586
655,6.549999999999905,-0.25800288,0.8604771,-0.207817,-0.8472701,-10.289872,-2.531273
656,6.559999999999905,-0.52893335,1.0172545,-0.20659742,-1.7107282,-10.711675,-3.4636059
657,6.569999999999904,-0.7587638,1.033048,0.15153323,-3.5705073,-11.699596,-4.0156755
658,6.579999999999904,-0.6144261,0.7472997,0.2719671,-4.632191,-11.841165,-3.6645806
659,6.589999999999904,-0.6144261,0.7472997,0.2719671,-4.632191,-11.841165,-3.6645806
660,6.599999999999904,-0.6144261,0.7472997,0.2719671,-5.467091,-9.631054,-2.0665572
661,6.6099999999999035,-0.6144261,0.7472997,0.2719671,-5.467091,-9.631054,-2.0665572
662,6.619999999999903,-0.6144261,0.7472997,0.2719671,-3.5323284,-4.9791627,-1.1253664
663,6.629999999999903,-0.43984273,0.42892745,0.5008219,-3.5323284,-4.9791627,-1.1253664
664,6.639999999999903,-0.4542948,0.55186146,1.0079247,-0.63270366,0.2490803,-0.8924741
665,6.649999999999903,-0.56027657,0.6302197,0.87968546,0.19807306,1.5337299,-0.7199047
666,6.659999999999902,-0.42685416,0.38483953,0.84358585,0.64751714,2.238363,-0.79351395
667,6.669999999999902,-0.3061764,-0.0062808543,0.85206187,0.9051496,3.2485814,-1.3306172
668,6.679999999999902,-0.3091034,-0.25190493,0.705407,1.3101532,6.3013806,-1.2867876
669,6.689999999999902,-0.3091034,-0.25190493,0.705407,1.3101532,6.3013806,-1.2867876
670,6.699999999999902,-0.31306705,-0.35776478,0.52783567,1.4077389,8.890685,-0.61422503
671,6.709999999999901,-0.5102737,-0.61832875,0.66162395,1.5830573,10.731222,0.27458394
672,6.719999999999901,-0.7689473,-0.8834052,0.85431814,1.7557794,12.3029785,0.73807794
673,6.729999999999901,-2.2329962,-3.4595919,1.8395586,2.2632558,17.765795,3.7588065
674,6.739999999999901,-2.4889867,-6.1226745,1.3712386,1.46852,22.972809,7.7537127
675,6.7499999999999005,-1.6002764,-8.447627,1.118297,-1.9689714,22.139437,9.287901
676,6.7599999999999,-0.8863932,-9.141814,0.9151754,-4.5883617,13.74798,5.097518
677,6.7699999999999,-0.6471719,-8.221638,0.7707767,-4.5883617,13.74798,5.097518
678,6.7799999999999,0.33727577,-4.4793468,0.8101692,0.39354995,-6.2738914,0.3764457
679,6.7899999999999,0.3895959,-2.2852554,0.41532913,1.5128077,-8.591667,-0.926988
680,6.7999999999998995,0.5154569,-1.253,-0.2642227,2.0587685,-9.275989,-2.049911
681,6.809999999999899,0.7429092,-0.09256637,-2.6279583,0.94913185,-5.016731,-2.6309967
682,6.819999999999899,0.42490283,-0.10616472,-1.7050995,-0.23991732,-0.70096785,-2.7015514
683,6.829999999999899,0.11488476,-0.25123417,-0.1797056,-1.8044959,3.5894442,-2.6030495
684,6.839999999999899,0.1408009,-0.20489,0.07976075,-2.0134118,3.7713294,-2.531731
685,6.849999999999898,0.24397767,-0.12427554,0.09976192,-2.4329236,4.189772,-2.549446
686,6.859999999999898,0.25903952,0.021769563,0.45777062,-2.1919372,4.46573,-2.6543622
687,6.869999999999898,0.110067405,0.0778704,0.15976542,-1.9549215,4.704426,-2.4495697
688,6.879999999999898,0.05427146,0.11567748,0.0617719,-1.9549215,4.704426,-2.4495697
689,6.8899999999998975,0.06969919,0.17098558,0.09683492,-2.0920608,4.766276,-2.112983
690,6.899999999999897,0.07854117,0.199036,0.16915621,-2.667954,3.7953057,-1.0213667
691,6.909999999999897,0.15055756,0.17714448,0.49423614,-2.7430904,2.8069258,-0.5015204
692,6.919999999999897,0.15055756,0.17714448,0.49423614,-2.4552202,1.1275045,0.0013744468
693,6.929999999999897,0.21793956,0.11397006,0.570704,-2.3284657,0.45478916,0.17012598
694,6.9399999999998965,0.2490999,0.102688916,0.4786255,-2.0007365,-1.7504344,0.6436992
695,6.949999999999896,0.23958716,0.10707942,0.35124,-1.9259053,-3.1067078,0.9213375
696,6.959999999999896,0.24538018,0.12189735,0.25123417,-1.9080375,-3.990019,1.1171198
697,6.969999999999896,0.26836932,0.13122717,0.23916028,-1.8541287,-4.7584877,1.2809844
698,6.979999999999896,0.27062553,0.11799469,0.21696389,-1.7319556,-5.2896347,1.3927728
699,6.989999999999895,0.26788148,0.10531103,0.2034265,-1.6003143,-5.58285,1.4682146
700,6.999999999999895,0.27849188,0.11317733,0.20830485,-1.4422529,-5.7442713,1.4845552
701,7.009999999999895,0.27861384,0.11457986,0.19610901,-1.2394456,-5.791766,1.4236214
702,7.019999999999895,0.28141886,0.111591876,0.16061912,-0.980286,-5.59522,1.2507466
703,7.0299999999998946,0.28404096,0.11397006,0.13866661,-0.87109387,-5.3383512,1.0630583
704,7.039999999999894,0.2895291,0.11397006,0.12653178,-0.79534656,-5.0147457,0.9314168
705,7.049999999999894,0.2959319,0.1144579,0.12317792,-0.7451029,-4.7607784,0.7851145
706,7.059999999999894,0.33069003,0.13616648,0.14470357,-0.6374379,-3.4709363,0.18967366
707,7.069999999999894,0.33069003,0.13616648,0.14470357,-0.6374379,-3.4709363,0.18967366
708,7.0799999999998935,0.33069003,0.13616648,0.14470357,-0.6374379,-3.4709363,0.18967366
709,7.089999999999893,0.37977824,0.04311227,0.21409786,-0.7470882,-0.10415252,-0.7535023
710,7.099999999999893,0.3819735,0.10384752,0.15098442,-0.7470882,-0.10415252,-0.7535023
711,7.109999999999893,0.26068595,-0.0131715005,0.06738198,-4.3299656,12.507466,-0.75334954
712,7.119999999999893,-0.016403396,-0.7827895,-1.0837828,-4.322635,17.575815,-1.3332134
713,7.129999999999892,-3.079143,-7.090353,-7.871984,2.2812762,25.50958,-2.285705
714,7.139999999999892,-0.8291947,-4.2859206,-0.7379699,5.7030377,2.8231137,0.73838335
715,7.149999999999892,0.77858204,-3.9557796,1.369531,7.1000867,-0.71791935,1.2974777
716,7.159999999999892,0.77858204,-3.9557796,1.369531,5.0498705,-2.9194777,1.1847731
717,7.169999999999892,1.5485051,-8.424699,1.1592749,2.2224805,-3.8136318,0.48426342
718,7.179999999999891,0.62015814,-7.748379,1.5261866,0.91904676,-5.086217,-0.1375974
719,7.189999999999891,0.30959123,-4.6375875,0.74797046,0.9592112,-4.5288024,0.23457226
720,7.199999999999891,0.19190145,-2.458863,0.27056456,1.2837334,-4.0518694,0.24205536
721,7.209999999999891,-0.036343586,-0.71016335,0.15677744,1.4789047,-4.0689735,0.2078469
722,7.2199999999998905,-0.036343586,-0.71016335,0.15677744,3.121827,-6.3357415,-0.22999077
723,7.22999999999989,-0.21818347,-0.38051,-0.03963646,4.3018656,-8.464912,-0.62598413
724,7.23999999999989,-0.27501604,-0.2967856,-0.111896776,4.7348166,-9.6477,-0.8399397
725,7.24999999999989,-0.26660094,-0.20043853,-0.18220575,5.064684,-9.764833,-1.3891076
726,7.25999999999989,-0.41441444,-0.056344748,-0.85206187,5.064684,-9.764833,-1.3891076
727,7.269999999999889,-0.485943,-0.056710627,-0.51557887,4.1389174,-10.859046,-1.8773416
728,7.279999999999889,-0.5467392,-0.13738607,-0.035672814,3.5138495,-10.276739,-2.364354
729,7.289999999999889,-0.5467392,-0.13738607,-0.035672814,2.9950724,-9.22208,-2.595872
730,7.299999999999889,-0.9519458,0.44953844,-0.7165052,1.0980303,-6.5661907,-2.8047879
731,7.309999999999889,-1.0993325,0.97627646,-0.17232713,0.49693888,-4.7412305,-4.2131376
732,7.319999999999888,-1.4830134,0.854623,0.0046344167,0.49693888,-4.7412305,-4.2131376
733,7.329999999999888,-1.5311869,0.42624438,-0.19135264,0.39553526,-1.5911512,-6.27099
734,7.339999999999888,-1.3605062,0.2706865,-0.105372004,-0.2958115,-2.2736404,-5.922644
735,7.349999999999888,-1.428376,0.33416584,0.06860156,-0.65393126,-3.4878879,-5.1088185
736,7.3599999999998875,-1.5274671,0.392279,0.143423,-0.8378017,-4.099211,-4.278042
737,7.369999999999887,-1.2155588,0.36471638,0.21800053,-1.1047498,-4.0440807,-2.289523
738,7.379999999999887,-0.5112493,0.19787739,0.3202016,-1.2290609,-3.1685581,-0.8405506
739,7.389999999999887,-0.5112493,0.19787739,0.3202016,-1.2043208,-2.2467623,-0.004886922
740,7.399999999999887,-0.3436786,0.17604686,0.34556895,-1.0884092,-1.2466233,0.65225136
741,7.4099999999998865,-0.24977067,0.17049775,0.41234115,-0.94974273,-0.38683042,1.153619
742,7.419999999999886,-0.22440335,0.12482436,0.5403364,-0.6030767,0.23396139,1.7931949
743,7.429999999999886,-0.16098501,0.09470064,0.59790075,-0.19929479,-0.36056322,2.4379632
744,7.439999999999886,-0.096591,0.036343586,0.53149444,-0.19929479,-0.36056322,2.4379632
745,7.449999999999886,-0.08774903,-0.1604362,0.24403864,-0.56153786,-0.09040806,2.6511552
746,7.459999999999885,-0.093785964,-0.18549863,0.18287653,-0.86070913,1.1516337,2.739578
747,7.469999999999885,-0.093785964,-0.18549863,0.18287653,-0.99464136,1.9869919,2.7682886
748,7.479999999999885,-0.119397216,-0.2608079,0.15531394,-1.2014192,3.653127,2.8567114
749,7.489999999999885,-0.17720546,-0.36044785,0.19397473,-1.3381003,4.9035683,3.0546317
750,7.4999999999998845,-0.17720546,-0.36044785,0.19397473,-1.3381003,4.9035683,3.0546317
751,7.509999999999884,-0.95353127,-2.0704868,0.51228595,-1.8277088,9.77644,4.312709
752,7.519999999999884,-0.687906,-6.805275,1.4795376,-2.5590672,16.843998,5.1121783
753,7.529999999999884,-0.26879618,-8.847467,1.6760124,-1.8255708,20.637625,4.5874453
754,7.539999999999884,0.38740066,-10.144434,0.8598672,0.5493206,19.440023,2.6670377
755,7.5499999999998835,0.38740066,-10.144434,0.8598672,0.5493206,19.440023,2.6670377
756,7.559999999999883,1.2985513,-3.9177897,0.22275689,2.719572,7.9517856,-1.4486669
757,7.569999999999883,0.7052241,-2.0414605,0.1484233,1.7136297,4.979468,-2.9486465
758,7.579999999999883,0.4106947,-1.2395235,0.020610958,0.4436409,3.459788,-3.3162346
759,7.589999999999883,0.19629194,-0.68607664,-0.07165052,-0.39187005,2.4743097,-3.2759175
760,7.599999999999882,0.058296088,-0.37605852,-0.09878625,-1.155299,1.6765196,-3.0204232
761,7.609999999999882,-0.002134271,-0.0693943,-0.089517415,-1.9599612,1.0070114,-2.5909848
762,7.619999999999882,-0.002134271,-0.0693943,-0.089517415,-1.9599612,1.0070114,-2.5909848
763,7.629999999999882,-0.030184686,0.023781875,-0.016403396,-3.222925,0.23243423,-1.8005253
764,7.6399999999998816,-0.030184686,0.023781875,-0.016403396,-3.526525,0.17730364,-1.5587754
765,7.649999999999881,0.0069516255,0.005183229,0.03439225,-3.981467,0.081397794,-0.91645056
766,7.659999999999881,0.018903542,0.002866021,0.05793021,-3.9933789,0.09254608,-0.7820602
767,7.669999999999881,0.11153089,0.05469831,0.22489117,-3.8374555,0.3866777,-0.6207918
768,7.679999999999881,0.14397182,0.11799469,0.30873755,-3.6106718,0.63361996,-0.54702985
769,7.6899999999998805,0.15653352,0.18074225,0.38020512,-3.1558826,0.65133506,-0.40469822
770,7.69999999999988,0.18415709,0.23495273,0.5119201,-2.711478,0.3724751,-0.21242839
771,7.70999999999988,0.18415709,0.23495273,0.5119201,-2.2834144,-0.0016798794,-0.027030786
772,7.71999999999988,0.18434003,0.24800226,0.63211006,-1.2127203,-1.2040154,0.27947086
773,7.72999999999988,0.30196884,0.28550446,0.696626,-0.72097373,-2.0161607,0.40943244
774,7.739999999999879,0.3372148,0.32264078,0.51039565,0.021991149,-3.5538614,0.6516405
775,7.749999999999879,0.32776302,0.3325194,0.42148802,0.39767328,-4.4921503,0.88178396
776,7.759999999999879,0.29690757,0.31337196,0.29666364,0.5725334,-4.872872,1.0276281
777,7.769999999999879,0.29690757,0.31337196,0.29666364,0.8770498,-5.1696,1.2728904
778,7.779999999999879,0.26611307,0.2783699,0.23147692,1.2429581,-5.069418,1.4094188
779,7.789999999999878,0.21629311,0.2335502,0.16964404,1.410946,-4.9377766,1.4184291
780,7.799999999999878,0.16635117,0.18629137,0.1214705,1.6878207,-4.572326,1.3710871
781,7.809999999999878,0.12890996,0.09616415,0.06518673,1.8272507,-4.340961,1.3110695
782,7.819999999999878,0.1323248,0.2116587,0.046283185,2.175291,-3.610519,0.8524625
783,7.8299999999998775,-0.08781,0.28818756,-0.2672717,2.3674083,-2.973081,0.3717115
784,7.839999999999877,-2.1112208,-0.22336671,-2.822116,0.86070913,0.268628,0.94225967
785,7.849999999999877,-2.1112208,-0.22336671,-2.822116,-2.0867157,5.238475,2.389552
786,7.859999999999877,0.5300309,0.0954324,0.418622,-4.191299,8.319984,1.9427042
787,7.869999999999877,0.5202133,0.09829842,0.4224027,-3.790266,7.487681,1.2819008
788,7.879999999999876,0.4027674,0.015671646,0.4212441,-3.287524,6.5868073,0.6918049
789,7.889999999999876,0.2420873,-0.92389536,-3.5881364,-3.378085,6.3412395,0.15760323
790,7.899999999999876,0.76156884,-3.0323112,-8.456957,-3.378085,6.3412395,0.15760323
791,7.909999999999876,0.7310793,-4.8818703,-2.4571555,-3.9510765,15.072795,-2.5034785
792,7.919999999999876,0.5603985,-2.555332,1.8462054,2.127949,3.4481816,-1.8497
793,7.929999999999875,1.6185701,-2.9863937,1.4196559,5.43273,-2.6716192,-2.595261
794,7.939999999999875,3.0973148,-5.833938,0.3179454,5.128214,-4.9964194,-3.3938146
795,7.949999999999875,2.5301476,-7.0627294,0.44533083,3.3166928,-6.4169865,-2.2163718
796,7.959999999999875,1.6458888,-6.6483755,0.4990535,1.3819299,-4.9371657,1.1565206
797,7.9699999999998745,1.548566,-5.103895,0.5439342,1.0432051,-3.003777,2.476295
798,7.979999999999874,0.5014927,-1.7763232,0.2333063,1.2127203,-1.4413365,2.6653578
799,7.989999999999874,0.5014927,-1.7763232,0.2333063,1.5940529,-0.05589417,2.527913
800,7.999999999999874,0.25220984,-0.81553537,0.32325056,5.221218,1.5166256,1.6569719
801,8.009999999999874,0.11378712,-0.27824792,0.19440159,5.221218,1.5166256,1.6569719
802,8.019999999999873,0.026038107,-0.23550156,-0.1247024,6.937597,0.19135354,1.0835222
803,8.029999999999873,0.026038107,-0.23550156,-0.1247024,6.937597,0.19135354,1.0835222
804,8.039999999999873,-0.046405144,-0.16677801,-0.5848512,7.1727796,-2.337934,0.839787
805,8.049999999999873,-0.10646963,-0.10665256,-0.85517186,7.190342,-4.5561385,0.52855116
806,8.059999999999873,-0.09799352,-0.010366458,-1.229096,6.174626,-7.980038,-0.18921551
807,8.069999999999872,-0.1820838,-0.030550564,-0.54844666,4.5382705,-11.028255,-0.8304713
808,8.079999999999872,-0.24288003,-0.06372323,-0.14366692,4.034154,-11.422264,-1.0363328
809,8.089999999999872,-0.31196943,-0.09579827,0.008110229,4.034154,-11.422264,-1.0363328
810,8.099999999999872,-0.32715324,-0.08213894,0.055978876,3.531412,-10.545825,-1.2622004
811,8.109999999999872,-0.4778937,0.0060369377,0.016403396,3.3864841,-10.279488,-1.333977
812,8.119999999999871,-2.8213232,0.95676315,0.07329696,2.0838141,-7.018231,-0.0795652
813,8.129999999999871,-1.4091675,0.71717596,0.014391083,1.5167783,-7.199658,0.97219205
814,8.139999999999871,-1.0145104,0.6402203,-0.118604474,0.9764681,-6.06971,1.3666582
815,8.14999999999987,-1.1056132,0.66638035,-0.14177656,0.42302418,-4.271017,1.709201
816,8.15999999999987,-0.95371425,0.6834545,-0.13220283,-0.2490803,-2.6047294,2.158187
817,8.16999999999987,-0.7833994,0.6047914,-0.05689356,-1.2560917,-0.22418754,2.6190848
818,8.17999999999987,-0.7127245,0.55869114,0.017927876,-1.972942,1.5306755,2.8863382
819,8.18999999999987,-0.40538952,0.22848894,0.093785964,-2.7565293,1.396438,2.9846876
820,8.19999999999987,-0.40538952,0.22848894,0.093785964,-2.7565293,1.396438,2.9846876
821,8.20999999999987,-0.07122366,-0.053783625,0.037746105,-2.9571986,0.8773552,2.7934868
822,8.21999999999987,-0.03652652,-0.119397216,0.020854875,-3.3334916,0.30558532,1.6997325
823,8.229999999999869,-0.042807378,-0.17202222,0.041465834,-3.3976326,0.65836,1.1058189
824,8.239999999999869,-0.051344458,-0.20623155,0.18897444,-3.3988543,1.0772609,0.56337047
825,8.249999999999869,-0.051344458,-0.20623155,0.18897444,-3.232088,1.8293887,-0.023518313
826,8.259999999999868,-0.12927583,-0.2598932,0.3164819,-3.232088,1.8293887,-0.023518313
827,8.269999999999868,-0.12927583,-0.2598932,0.3164819,-0.82741696,8.396954,0.15302174
828,8.279999999999868,-1.6577797,-5.026025,2.230557,0.5554292,13.744315,1.5479325
829,8.289999999999868,-1.466793,-7.821127,1.8424246,2.0131063,19.68498,2.7597365
830,8.299999999999867,-0.7120538,-9.586535,1.548566,2.6332874,21.276588,2.5160012
831,8.309999999999867,1.7654078,-9.083396,-1.4209975,3.3522758,11.0610895,0.20021108
832,8.319999999999867,1.0871366,-3.0833507,-0.54399514,2.6091583,0.65026605,-1.7104226
833,8.329999999999867,1.0871366,-3.0833507,-0.54399514,1.1594223,-3.6572502,-2.8799243
834,8.339999999999867,0.74681187,-1.8272407,-0.5930224,-0.36819902,-4.7429104,-3.3157766
835,8.349999999999866,0.74681187,-1.8272407,-0.5930224,-1.7146988,-4.194506,-3.157715
836,8.359999999999866,0.3228847,-0.48271108,-0.278065,-2.5835018,-2.0520492,-2.5615108
837,8.369999999999866,0.22446433,-0.2617226,-0.020062147,-2.8528934,-0.0070249503,-1.9158261
838,8.379999999999866,0.19013305,0.050429773,0.112689495,-3.0176742,0.622319,-1.5940529
839,8.389999999999866,0.19013305,0.050429773,0.112689495,-3.06578,0.9104946,-1.2896893
840,8.399999999999865,0.1411058,0.2876997,0.19598705,-2.8015807,0.9812023,-0.051465396
841,8.409999999999865,0.12848312,0.30465192,0.18446198,-2.6821566,1.1560625,0.43661594
842,8.419999999999865,0.09500554,0.25623447,0.1934869,-2.499508,1.5615243,1.3524556
843,8.429999999999865,0.12445848,0.23105007,0.3398369,-2.346028,1.8632917,1.7398969
844,8.439999999999864,0.12445848,0.23105007,0.3398369,-2.346028,1.8632917,1.7398969
845,8.449999999999864,0.24818522,0.24452646,0.48661375,-1.8306104,2.616794,2.2649355
846,8.459999999999864,0.33483663,0.2935537,0.5663135,-1.6417004,2.4620924,2.415972
847,8.469999999999864,0.40606028,0.29934675,0.562045,-1.350623,1.4671456,2.741258
848,8.479999999999864,0.41258505,0.28989497,0.49496788,-1.2370021,0.48334712,3.0213394
849,8.489999999999863,0.415695,0.27654052,0.43380582,-1.1775955,-0.6374379,3.356552
850,8.499999999999863,0.4251468,0.25983223,0.37947336,-1.1281154,-1.9755383,3.7514763
851,8.509999999999863,0.4251468,0.25983223,0.37947336,-1.1281154,-1.9755383,3.7514763
852,8.519999999999863,0.39697438,0.23836756,0.27861384,-0.8910997,-3.5332446,4.2389464
853,8.529999999999863,0.38355896,0.25544173,0.29580995,-0.60994893,-3.477656,4.2649083
854,8.539999999999862,0.39855984,0.2915414,0.28574836,0.30650163,-2.2592852,3.8950295
855,8.549999999999862,0.41160935,0.26910108,0.26032007,0.73364913,-1.2611313,3.4972036
856,8.559999999999862,0.40959707,0.29196826,0.25422215,0.73364913,-1.2611313,3.4972036
857,8.569999999999862,0.41965863,0.30946928,0.21507353,0.93828905,-0.3743077,3.144887
858,8.579999999999862,0.39173016,0.30483487,0.18123008,1.0769554,1.4915802,2.355191
859,8.589999999999861,0.39173016,0.30483487,0.18123008,1.0769554,1.4915802,2.355191
860,8.599999999999861,0.39173016,0.30483487,0.18123008,1.0769554,1.4915802,2.355191
861,8.60999999999986,0.39173016,0.30483487,0.18123008,0.8200866,2.438574,1.668273
862,8.61999999999986,0.18348631,0.21001224,0.05213719,0.8200866,2.438574,1.668273
863,8.62999999999986,0.18348631,0.21001224,0.05213719,0.8200866,2.438574,1.668273
864,8.63999999999986,-0.037563168,0.0036587503,-0.05079565,0.8194757,3.0670016,0.7493789
865,8.64999999999986,-2.0103612,-1.3269067,-5.726554,-2.2925773,9.286526,1.2901474
866,8.65999999999986,-0.9743252,-1.3593476,-3.7469869,-8.436507,20.917858,1.268309
867,8.66999999999986,-1.1897645,-4.4582477,-3.120426,6.225939,10.992368,0.10980303
868,8.67999999999986,0.28715092,-1.9093797,-0.098603316,10.400592,3.247054,0.017562376
869,8.68999999999986,1.0271941,-2.6785707,0.5518005,10.797807,-2.133905,-1.9911152
870,8.699999999999859,2.105306,-4.779974,0.48752844,9.9794,-7.3763504,-4.931515
871,8.709999999999859,0.447831,-8.867286,0.8349877,-4.1980186,-15.69832,-6.2222733
872,8.719999999999859,-0.579607,-6.205728,3.538499,-4.1980186,-15.69832,-6.2222733
873,8.729999999999858,-0.07884607,-3.456299,2.2124462,-2.7855456,-7.731874,-1.223105
874,8.739999999999858,-0.07884607,-3.456299,2.2124462,0.2096795,-0.4166101,1.704314
875,8.749999999999858,0.14220342,-1.021523,0.42850062,2.0954206,3.1627548,2.1809416
876,8.759999999999858,0.14220342,-1.021523,0.42850062,2.0954206,3.1627548,2.1809416
877,8.769999999999857,0.08451713,-0.5291162,0.14653294,2.4205534,3.4868188,2.0740402
878,8.779999999999857,-0.014574022,-0.17537609,-0.000121958336,2.464994,3.403894,1.9193386
879,8.789999999999857,0.34123942,0.26879618,-2.1018908,2.2800546,2.2050707,1.8106046
880,8.799999999999857,0.3523986,0.34233707,-1.6904035,-0.27687466,-8.303339,0.9923506
881,8.809999999999857,0.09476163,0.20360945,-0.39112037,-0.80970186,-11.348196,0.36163223
882,8.819999999999856,0.022562291,0.11726294,0.014147166,-0.80970186,-11.348196,0.36163223
883,8.829999999999856,0.0052442085,0.15324064,0.01597654,-0.6169739,-10.8796625,-0.52473325
884,8.839999999999856,0.04006331,0.16574138,0.04006331,-0.6169739,-10.8796625,-0.52473325
885,8.849999999999856,0.016464375,0.3117255,0.019513333,-0.7840455,-10.705566,-1.7107282
886,8.859999999999856,-0.068479605,0.52783567,-0.043417167,-1.3419182,-10.893254,-2.4231498
887,8.869999999999855,-0.6022912,1.2161076,-0.05335677,-2.6716192,-11.385306,-3.335935
888,8.879999999999855,-1.0089004,1.4866722,0.2891632,-3.9665008,-12.186303,-3.7372735
889,8.889999999999855,-1.1497012,1.4016061,0.6269878,-4.216345,-11.293676,-4.074013
890,8.899999999999855,-1.3249553,1.0817095,0.8942595,-3.1494684,-8.751714,-4.0422482
891,8.909999999999854,-1.214888,0.93328613,0.8947473,-2.7571404,-8.322886,-3.8200457
892,8.919999999999854,-0.7029678,0.30111513,0.8209015,-1.8533652,-7.553196,-3.1202996
893,8.929999999999854,-0.7029678,0.30111513,0.8209015,-1.3263412,-6.477157,-2.4900393
894,8.939999999999854,-0.60198635,0.24873403,0.8410857,-0.86132,-5.0794973,-1.9387336
895,8.949999999999854,-0.497651,0.18629137,0.7780942,-0.25503623,-2.8860328,-1.2417363
896,8.959999999999853,-0.31745756,-0.010732334,0.7145539,0.6630942,1.8892535,-0.07009678
897,8.969999999999853,-0.2836141,-0.15196009,0.5294821,0.70386946,4.7003026,0.5841399
898,8.979999999999853,-0.2836141,-0.15196009,0.5294821,0.70386946,4.7003026,0.5841399
899,8.989999999999853,-0.2836141,-0.15196009,0.5294821,0.70386946,4.7003026,0.5841399
900,8.999999999999853,-0.44459912,-0.54850763,0.7305914,-0.05681047,10.102032,1.6728544
901,9.009999999999852,-1.0401826,-1.8682188,1.5736895,-0.62995476,16.47702,3.1219795
902,9.019999999999852,-1.4855136,-4.2248807,2.6215553,0.24419338,19.874805,4.818963
903,9.029999999999852,-1.4855136,-4.2248807,2.6215553,1.3402383,21.413576,5.560859
904,9.039999999999852,-0.6766858,-8.552024,1.8895005,1.8296942,20.087234,4.6836567
905,9.049999999999851,-0.251722,-9.131753,1.4481943,1.9036088,18.691103,3.734372
906,9.059999999999851,1.2481827,-7.2970724,0.9333471,2.265852,11.644466,-0.14905111
907,9.069999999999851,1.5149664,-4.9155307,0.67381984,2.7221682,6.2238007,-3.3078353
908,9.07999999999985,1.1353102,-2.7505262,0.10787215,2.7860036,1.181108,-4.7589455
909,9.08999999999985,0.7848019,-1.6338758,-0.40788963,1.8868101,-1.7938058,-5.2551208
910,9.09999999999985,0.7569954,-0.3246531,-1.1937282,1.0952814,-2.5653286,-5.2496233
911,9.10999999999985,0.43776944,-0.24312395,-0.4021576,-1.5838208,0.19822577,-5.309641
912,9.11999999999985,0.43776944,-0.24312395,-0.4021576,-2.6091583,1.9123137,-4.8117857
913,9.12999999999985,0.31617698,-0.0066467295,0.017683959,-2.9341385,1.5946637,-3.7152824
914,9.13999999999985,0.31617698,-0.0066467295,0.017683959,-2.9341385,1.5946637,-3.7152824
915,9.14999999999985,0.11372615,0.20909756,0.20452413,-3.3053918,-0.32696563,-0.16920967
916,9.15999999999985,0.31184745,0.31922594,0.2626373,-2.7044532,-1.8513799,2.935971
917,9.169999999999849,0.4233174,0.37361938,0.29574898,-2.7044532,-1.8513799,2.935971
918,9.179999999999849,0.5311286,0.39825493,0.3242872,-2.1841488,-1.8745927,3.8470767
919,9.189999999999849,0.5311286,0.39825493,0.3242872,-1.3759739,-1.5836681,4.7624583
920,9.199999999999848,0.6834545,0.25836873,0.1823277,-0.82833326,-1.311375,5.0362787
921,9.209999999999848,0.6744906,0.18104716,0.09933506,-0.5010622,-0.95417154,4.9599204
922,9.219999999999848,0.61942637,0.1629973,0.06104015,-0.3830125,-0.7669413,4.8386636
923,9.229999999999848,0.54460496,0.16635117,0.035367917,-0.23426682,-0.46975538,4.56072
924,9.239999999999847,0.54460496,0.16635117,0.035367917,-0.14584407,-0.32910365,4.3600507
925,9.249999999999847,0.51063955,0.16854642,0.013537374,-0.14584407,-0.32910365,4.3600507
926,9.259999999999847,0.46514907,0.2613567,0.025123417,0.0954477,-0.011301007,3.7204747
927,9.269999999999847,0.46612477,0.3886812,0.047929626,0.0954477,-0.011301007,3.7204747
928,9.279999999999847,0.4499043,0.4027064,0.051466417,0.75533485,0.27183503,2.606562
929,9.289999999999846,0.4499043,0.4027064,0.051466417,0.75533485,0.27183503,2.606562
930,9.299999999999846,0.37422916,0.40209663,0.01762298,1.1788172,0.14294247,1.916437
931,9.309999999999846,0.29330978,0.34550798,0.0023781876,1.4107933,-0.14049901,1.653154
932,9.319999999999846,0.28544348,0.32050648,-0.025184397,1.5071573,-0.3941608,1.4395039
933,9.329999999999846,0.2658082,0.2920902,-0.043539125,1.5482379,-0.61391956,1.1997393
934,9.339999999999845,0.1887915,0.23257454,-0.05719846,1.4935656,-0.853226,0.6094908
935,9.349999999999845,0.16025324,0.19677977,-0.06640632,1.4074335,-0.90301156,0.32162055
936,9.359999999999845,0.16025324,0.19677977,-0.06640632,1.4074335,-0.90301156,0.32162055
937,9.369999999999845,0.14525238,0.15763116,-0.09573729,1.1846204,-0.93447113,-0.09437868
938,9.379999999999844,0.14525238,0.15763116,-0.09573729,1.1846204,-0.93447113,-0.09437868
939,9.389999999999844,-4.871016,-1.6582675,-3.450994,-2.698192,4.758182,3.683212
940,9.399999999999844,-4.871016,-1.6582675,-3.450994,-2.698192,4.758182,3.683212
941,9.409999999999844,-0.56893563,-0.41417053,-0.43161055,-5.4583864,7.476074,5.181359
942,9.419999999999844,0.9599951,-0.40978,1.1645192,-3.7636936,9.910983,2.976288
943,9.429999999999843,0.9599951,-0.40978,1.1645192,-3.7636936,9.910983,2.976288
944,9.439999999999843,1.2396455,-9.115532,-1.7650421,-1.2434162,30.670628,-1.8594738
945,9.449999999999843,1.4920993,-7.005592,-1.5886292,14.756977,4.883257,-4.6766315
946,9.459999999999843,2.0007875,-5.956994,-1.1139675,12.937363,-6.799236,-9.145721
947,9.469999999999843,2.0007875,-5.956994,-1.1139675,12.937363,-6.799236,-9.145721
948,9.479999999999842,1.0349995,-7.220055,-0.28166276,-2.5405886,-27.189917,-11.882704
949,9.489999999999842,-0.32251883,-6.7122817,2.3874564,-3.787212,-22.332012,-4.5518622
950,9.499999999999842,-0.2952611,-4.180427,1.6086304,3.8664715,-6.401868,-1.7701348
951,9.509999999999842,-0.06238169,-2.8311408,0.95694613,5.1697526,-2.8367054,-0.15928312
952,9.519999999999841,-0.17946169,-1.8693774,0.9366401,5.7925296,-0.6230826,0.83260936
953,9.529999999999841,-0.30489585,-1.1490915,0.5697893,6.2606053,1.8237382,1.7956384
954,9.539999999999841,-0.29471233,-0.73053044,0.21976891,6.014121,3.0767756,2.493552
955,9.54999999999984,-0.27843088,-0.46185625,0.08890763,5.7199893,3.5257614,2.7711902
956,9.55999999999984,-0.29983455,-0.33617815,-0.036587503,5.1709743,3.9451206,3.074332
957,9.56999999999984,-0.35599637,-0.29288295,-0.105920814,5.1709743,3.9451206,3.074332
958,9.57999999999984,-0.43325698,-0.25891754,-0.14659391,4.1685443,4.079969,3.5935676
959,9.58999999999984,-0.23416002,-0.0395145,-0.7963879,3.0057623,2.9663615,4.065461
960,9.59999999999984,-0.11732392,0.26574722,-0.3711192,1.3984233,1.9637791,2.4813347
961,9.60999999999984,0.054576356,0.31367683,-0.33831242,0.9976957,2.0402899,0.7449502
962,9.61999999999984,0.017318083,0.2681254,-0.3381295,0.9976957,2.0402899,0.7449502
963,9.62999999999984,-0.009451771,0.2628202,-0.4367328,0.3744604,1.2705997,-1.8310685
964,9.639999999999839,-0.044270877,0.3351415,-0.4589292,0.058643065,0.23777929,-3.0375273
965,9.649999999999839,-0.2004995,0.3348976,-0.5302139,-0.39522982,-1.6548339,-4.8113275
966,9.659999999999838,-0.594181,0.32447016,-0.59344923,-0.95524055,-3.3370042,-5.729152
967,9.669999999999838,-0.7589467,0.36935082,-0.5698503,-1.563815,-4.4945936,-5.9154663
968,9.679999999999838,-0.81870633,0.39776713,-0.4065481,-2.1749856,-5.186704,-5.867513
969,9.689999999999838,-0.8360244,0.39502305,-0.32678735,-2.6994135,-5.3411,-5.6376753
970,9.699999999999838,-0.79376584,0.39173016,-0.20982932,-2.9707904,-3.916868,-4.6836567
971,9.709999999999837,-0.77339876,0.4131339,-0.2654423,-2.6105325,-2.021353,-3.8292089
972,9.719999999999837,-0.86218446,0.48216227,-0.29495624,-2.6105325,-2.021353,-3.8292089
973,9.729999999999837,-0.91682184,0.43496442,-0.16580236,-2.3051,-1.1285735,-3.2082644
974,9.739999999999837,-0.95249456,0.35471582,-0.058966853,-1.485777,-0.041691553,-1.4752395
975,9.749999999999837,-0.95249456,0.35471582,-0.058966853,-1.485777,-0.041691553,-1.4752395
976,9.759999999999836,-0.6268048,0.09793254,-0.063235395,-0.79473567,0.5342017,0.26511553
977,9.769999999999836,-0.5527152,-0.0020123124,-0.0515274,-0.5018258,1.1302534,0.9129381
978,9.779999999999836,-0.5527152,-0.0020123124,-0.0515274,-0.5018258,1.1302534,0.9129381
979,9.789999999999836,-0.4599049,-0.1235438,-0.14415476,-0.15943582,1.9906571,1.7763962
980,9.799999999999836,-0.21757366,-0.15226498,-0.13598356,-0.11911872,2.10214,1.8411479
981,9.809999999999835,-0.1676927,-0.19690172,-0.17488825,0.061850104,2.5977044,1.8891008
982,9.819999999999835,-0.4063652,-0.36142352,-0.39502305,0.21609358,3.161533,2.0002782
983,9.829999999999835,-0.4063652,-0.36142352,-0.39502305,0.21609358,3.161533,2.0002782
984,9.839999999999835,-1.5241133,-1.3477006,-0.781509,-0.13118331,3.180928,3.327841
985,9.849999999999834,-2.1287827,-4.9886446,-0.9465186,-1.621389,0.9636399,3.4107661
986,9.859999999999834,-3.1749413,-7.8082,-0.9710933,-1.621389,0.9636399,3.4107661
987,9.869999999999834,-2.5476487,-9.760936,-0.78535074,-4.6520443,-5.806427,4.308891
988,9.879999999999834,-1.4606949,-9.156998,-0.105493955,-4.715727,-10.19641,4.8256826
989,9.889999999999834,0.15080148,-6.9538817,0.49563867,-2.7171285,-13.964838,5.0459
990,9.899999999999833,0.15080148,-6.9538817,0.49563867,-0.75945824,-15.359138,3.9164097
991,9.909999999999833,1.1126869,-2.4726443,0.3108108,2.552806,-15.167631,-0.0711658
992,9.919999999999833,0.8125474,-1.2843432,0.17622979,5.6268325,-12.009611,-1.35551
993,9.929999999999833,0.9495066,-0.6752833,-2.2176902,6.9924216,2.7333164,-1.7696766
994,9.939999999999833,0.9495066,-0.6752833,-2.2176902,5.522833,9.716117,-2.1881194
995,9.949999999999832,0.9495066,-0.6752833,-2.2176902,5.522833,9.716117,-2.1881194
996,9.959999999999832,0.5253965,-0.4063042,-0.24629487,2.682004,10.029949,-2.3675609
997,9.969999999999832,0.37197292,-0.23257454,-0.16561942,2.682004,10.029949,-2.3675609
998,9.979999999999832,0.093359105,0.023172084,-0.28855342,-0.08002335,6.15966,-0.49357912
999,9.989999999999831,0.113116354,0.07896802,-0.24903892,-0.5551238,5.3650765,-0.111635625
1000,9.999999999999831,0.29891986,0.19958481,-0.082016975,-1.6036739,2.6795604,0.85918194
