id,timestamp,acc_x,acc_y,acc_z,gyro_x,gyro_y,gyro_z
0,0,0.35136196,-0.4644783,0.801998,-3.124423,-3.121216,1.2864822
1,0.01,0.35136196,-0.4644783,0.801998,-3.124423,-3.121216,1.2864822
2,0.02,0.30105415,-0.16750978,0.63509804,-2.9767463,-3.0871603,1.3558154
3,0.03,0.30105415,-0.16750978,0.63509804,-2.7959301,-3.1716123,1.32909
4,0.04,0.28446782,-0.1144579,0.65619683,-2.5799894,-3.4912477,1.2608259
5,0.05,0.27324766,-0.03445323,0.5552153,-1.3616186,-5.593235,0.9579894
6,0.060000000000000005,0.27324766,-0.03445323,0.5552153,-1.3616186,-5.593235,0.9579894
7,0.07,0.26190552,0.028965104,0.2833702,-1.1340714,-5.894544,0.981355
8,0.08,0.2915414,0.035672814,0.19098675,-1.2275337,-5.241987,1.0490084
9,0.09,0.2915414,0.035672814,0.19098675,-1.2275337,-5.241987,1.0490084
10,0.09999999999999999,1.235255,-0.30684718,-1.0959786,-1.934763,5.3360605,0.23762658
11,0.10999999999999999,1.235255,-0.30684718,-1.0959786,-1.934763,5.3360605,0.23762658
12,0.11999999999999998,1.235255,-0.30684718,-1.0959786,-1.934763,5.3360605,0.23762658
13,0.12999999999999998,1.4161192,-0.42343935,-0.87779516,-2.8857274,5.4243307,-1.8839084
14,0.13999999999999999,0.822548,-0.44935548,0.3664848,-1.3458889,3.3023374,-2.245846
15,0.15,0.418683,-0.5318603,0.6388177,0.35308012,3.004846,-1.8400788
16,0.16,0.13208087,-0.56619155,0.66168493,1.493871,2.7973046,-1.0221303
17,0.17,-0.049027253,-0.6568676,0.5479588,2.3142629,2.4303274,0.5505423
18,0.18000000000000002,-0.055369087,-0.7160784,0.4803939,2.5923593,2.195755,1.6811012
19,0.19000000000000003,0.22190319,-0.9066383,0.40703595,3.040887,1.9920316,3.7939312
20,0.20000000000000004,0.66662425,-1.0639645,0.33349505,3.4193182,2.0532708,4.76368
21,0.21000000000000005,1.1925696,-1.2225714,0.18135203,3.7048976,2.288912,4.436714
22,0.22000000000000006,1.3869102,-1.1673242,0.0140252095,3.7392588,2.5016458,3.733761
23,0.23000000000000007,1.1820812,-0.9245661,-0.02561125,3.5217907,2.934444,1.2105823
24,0.24000000000000007,0.75980043,-0.59472984,-0.007561417,3.40649,2.957046,-0.24358252
25,0.25000000000000006,0.48179638,-0.40441385,-0.0019513334,3.40649,2.957046,-0.24358252
26,0.26000000000000006,0.257515,-0.22641563,-0.008841979,3.4202344,2.765387,-1.1015427
27,0.2700000000000001,0.18995011,-0.15964346,-0.015183813,3.4423783,2.688418,-1.2185235
28,0.2800000000000001,0.095920235,-0.069577225,-0.024086772,3.509268,2.5300512,-1.3483323
29,0.2900000000000001,-0.23586741,0.25208786,-2.2174466,2.9739974,1.2583824,-1.3562735
30,0.3000000000000001,-0.59058326,0.32837284,-2.8208354,0.6942484,-3.2096386,-1.1479685
31,0.3100000000000001,-0.57478964,0.19269417,-1.8658404,-0.8197812,-4.8970013,-0.84604836
32,0.3200000000000001,-0.21629311,-0.02426971,-0.474174,-0.852157,-1.5257887,-0.7695375
33,0.3300000000000001,0.02207446,-0.057625312,0.041282896,-0.37064248,1.231657,-1.0360274
34,0.34000000000000014,0.02841629,-0.04622221,0.08506594,-0.24556783,1.7487545,-1.1045971
35,0.35000000000000014,0.3876446,-0.43252525,-0.078114316,-0.08399397,2.5576928,-1.1129965
36,0.36000000000000015,0.3876446,-0.43252525,-0.078114316,-0.5299256,3.623958,-1.2388347
37,0.37000000000000016,0.8129743,-0.87651455,-0.140496,-0.5299256,3.623958,-1.2388347
38,0.38000000000000017,0.8129743,-0.87651455,-0.140496,-3.0957124,2.713158,-1.1876748
39,0.3900000000000002,3.741194,-4.6667967,0.13915445,-4.8030806,1.423316,-0.3820962
40,0.4000000000000002,4.047919,-4.953033,0.24806325,-5.701511,1.0413725,0.19486602
41,0.4100000000000002,4.047919,-4.953033,0.24806325,-5.701511,1.0413725,0.19486602
42,0.4200000000000002,4.047919,-4.953033,0.24806325,-5.701511,1.0413725,0.19486602
43,0.4300000000000002,4.047919,-4.953033,0.24806325,-5.701511,1.0413725,0.19486602
44,0.4400000000000002,2.8299212,-2.675339,0.54899544,-0.77488256,12.443478,1.0146471
45,0.45000000000000023,1.2121439,-0.49594358,-2.5460632,-1.4352279,-8.076555,0.059864793
46,0.46000000000000024,0.95023835,-0.4850283,-1.3953862,-2.0694587,-8.901376,0.4642576
47,0.47000000000000025,0.8462079,-0.46027076,-0.64528155,-2.1992676,-5.6769233,0.82695884
48,0.48000000000000026,0.8462079,-0.46027076,-0.64528155,-2.1992676,-5.6769233,0.82695884
49,0.49000000000000027,0.8462079,-0.46027076,-0.64528155,-2.1992676,-5.6769233,0.82695884
50,0.5000000000000002,0.8063275,-0.41551206,-0.28465074,-2.2015584,-3.9765801,0.04062254
51,0.5100000000000002,0.62942696,-0.06738198,0.39496207,-2.1461222,-4.586987,-0.2611449
52,0.5200000000000002,0.52204263,0.039331563,0.58942467,-1.9543107,-5.397147,-0.7800749
53,0.5300000000000002,0.5124079,0.06713806,0.6109503,-1.7663169,-5.668982,-1.3614659
54,0.5400000000000003,0.52381104,0.10768921,0.7655325,-1.7663169,-5.668982,-1.3614659
55,0.5500000000000003,0.52381104,0.10768921,0.7655325,-1.7663169,-5.668982,-1.3614659
56,0.5600000000000003,0.52381104,0.10768921,0.7655325,-1.7663169,-5.668982,-1.3614659
57,0.5700000000000003,0.52381104,0.10768921,0.7655325,-1.7663169,-5.668982,-1.3614659
58,0.5800000000000003,0.57863134,0.11183579,0.8888324,-1.5184582,-6.0193133,-1.5822937
59,0.5900000000000003,0.57863134,0.11183579,0.8888324,-1.5184582,-6.0193133,-1.5822937
60,0.6000000000000003,0.57863134,0.11183579,0.8888324,-1.5184582,-6.0193133,-1.5822937
61,0.6100000000000003,0.4927117,0.15525296,0.33044612,-3.209486,-6.8482575,1.2450961
62,0.6200000000000003,0.47960114,0.09457869,0.26623505,-3.2953126,-6.3371162,1.4271339
63,0.6300000000000003,0.38923004,-0.12933682,-0.3067862,-3.4142785,-4.600579,1.6920967
64,0.6400000000000003,0.18873052,-0.7444947,-2.1146965,-4.6781588,3.1940618,1.2837334
65,0.6500000000000004,0.6307075,-0.66522175,-0.61515784,-4.705495,15.333176,-0.7139487
66,0.6600000000000004,0.8212674,-0.7109561,-0.19165753,-2.4492643,21.045683,-2.7221682
67,0.6700000000000004,0.35556954,-1.2007408,-3.7876601,-2.062892,20.346851,-3.1364875
68,0.6800000000000004,0.48265013,-1.1431764,-0.8837101,-1.6048957,6.5185432,-2.7953193
69,0.6900000000000004,0.24275808,-0.99109435,0.4667955,0.5876524,0.03604105,-2.244777
70,0.7000000000000004,0.24275808,-0.99109435,0.4667955,0.5876524,0.03604105,-2.244777
71,0.7100000000000004,-0.20306063,-0.6454645,0.58911973,5.1010303,0.00061086525,-0.20861048
72,0.7200000000000004,-0.2737355,-0.58820504,0.20714624,5.6263742,0.7507534,0.49877146
73,0.7300000000000004,-0.2737355,-0.58820504,0.20714624,5.9660153,1.8698585,2.1148155
74,0.7400000000000004,-0.20238985,-0.59588844,0.09488358,5.8775926,2.9588785,3.4261904
75,0.7500000000000004,-0.20238985,-0.59588844,0.09488358,5.701816,3.828598,4.482071
76,0.7600000000000005,-0.09488358,-0.60558414,0.07415067,5.0361257,5.409059,6.262438
77,0.7700000000000005,0.3109328,-0.629244,0.25781992,4.5793514,5.7598486,6.817256
78,0.7800000000000005,0.48630884,-0.65229416,0.3266654,4.3780713,5.3898168,6.744105
79,0.7900000000000005,0.48630884,-0.65229416,0.3266654,4.3780713,5.3898168,6.744105
80,0.8000000000000005,0.8182185,-0.6163774,0.25885656,4.160756,4.0011673,5.505423
81,0.8100000000000005,0.8182185,-0.6163774,0.25885656,4.1120396,3.5030067,4.855157
82,0.8200000000000005,0.6976017,-0.4019137,0.20629252,4.0391936,2.5178337,3.5375206
83,0.8300000000000005,0.57302123,-0.32764107,0.18757193,4.0391936,2.5178337,3.5375206
84,0.8400000000000005,0.41673166,-0.24598998,0.12409261,4.0187297,1.2154691,2.0392208
85,0.8500000000000005,0.37069237,-0.22153732,0.07994369,4.0204096,0.7460192,1.5370897
86,0.8600000000000005,0.37447307,-0.23428197,0.05335677,4.0022364,0.37782016,1.156826
87,0.8700000000000006,0.47600338,-0.34770322,0.056710627,3.8747182,-0.56169057,0.3193298
88,0.8800000000000006,0.60308397,-0.49948034,-0.10457927,3.6118934,-1.6937766,-0.5878051
89,0.8900000000000006,0.684857,-1.3358096,-2.7910166,1.4978416,-4.3741007,-1.3093897
90,0.9000000000000006,1.0476221,-1.2402554,-0.92993236,-1.7476854,-7.66697,-2.1213822
91,0.9100000000000006,2.1181724,-2.3850782,0.03683142,-3.071125,-8.977123,-3.2461379
92,0.9200000000000006,2.1181724,-2.3850782,0.03683142,-5.830556,-7.3122096,-6.493192
93,0.9300000000000006,2.1862862,-3.9187043,-0.6590018,-6.9710417,10.295828,-7.1755285
94,0.9400000000000006,1.4562435,-3.7662563,-0.070735835,-6.9710417,10.295828,-7.1755285
95,0.9500000000000006,1.5110028,-3.6479568,0.23629428,-7.3125153,13.003183,-4.9206724
96,0.9600000000000006,2.572894,-3.3245232,0.41404852,-7.907192,9.778578,0.623388
97,0.9700000000000006,2.572894,-3.3245232,0.41404852,-7.907192,9.778578,0.623388
98,0.9800000000000006,2.622836,-2.6447885,-0.31843323,-6.4559293,10.765125,0.42913285
99,0.9900000000000007,1.6007642,-1.2653787,-0.4119143,-1.7153096,-2.734691,-0.713796
100,1.0000000000000007,1.6007642,-1.2653787,-0.4119143,-1.7153096,-2.734691,-0.713796
101,1.0100000000000007,0.9500555,-0.9242003,0.07439458,0.18234327,-5.531385,-0.033292156
102,1.0200000000000007,0.8599282,-0.78809476,-0.01103723,0.59299743,-4.852408,0.07040222
103,1.0300000000000007,0.6274147,-0.43197644,-0.5191766,1.3098478,-2.5066855,0.11789699
104,1.0400000000000007,0.46508813,-0.16689998,-1.1219556,0.5581781,-2.1491766,-0.016798794
105,1.0500000000000007,0.42850062,-0.0951275,-0.9004794,-0.5035057,-3.2168164,-0.15607607
106,1.0600000000000007,0.42850062,-0.0951275,-0.9004794,-0.5035057,-3.2168164,-0.15607607
107,1.0700000000000007,0.42850062,-0.0951275,-0.9004794,-0.5035057,-3.2168164,-0.15607607
108,1.0800000000000007,0.42295152,-0.07695571,-0.51533496,-2.01219,-6.032447,-0.9503536
109,1.0900000000000007,0.3404467,0.07305304,0.35282546,-2.0493002,-6.1208696,-1.1679744
110,1.1000000000000008,0.31983575,0.10665256,0.3975232,-2.0320432,-6.178444,-1.3341297
111,1.1100000000000008,0.38587618,0.09610317,0.47435695,-1.9278907,-6.5113654,-1.5216653
112,1.1200000000000008,0.38587618,0.09610317,0.47435695,-1.9278907,-6.5113654,-1.5216653
113,1.1300000000000008,0.38587618,0.09610317,0.47435695,-1.9278907,-6.5113654,-1.5216653
114,1.1400000000000008,0.43392777,0.04981998,0.5246038,-1.8093829,-6.8745246,-1.629483
115,1.1500000000000008,0.4437454,0.061162103,0.5630816,-1.824349,-8.115955,-1.6158913
116,1.1600000000000008,0.44453815,0.013415418,0.4106337,-2.3302982,-7.5547233,-1.2996159
117,1.1700000000000008,0.4538679,-0.0011586042,0.41282898,-2.658791,-7.0816083,-1.0639745
118,1.1800000000000008,0.54917836,-0.077809416,0.3314218,-3.4993415,-5.187773,-0.35888332
119,1.1900000000000008,0.55509335,-0.21671996,0.015000875,-3.9596286,-3.3484578,-0.118507855
120,1.2000000000000008,0.55509335,-0.21671996,0.015000875,-3.9596286,-3.3484578,-0.118507855
121,1.2100000000000009,0.55509335,-0.21671996,0.015000875,-3.9596286,-3.3484578,-0.118507855
122,1.2200000000000009,0.55509335,-0.21671996,0.015000875,-3.9596286,-3.3484578,-0.118507855
123,1.2300000000000009,0.55509335,-0.21671996,0.015000875,-3.9596286,-3.3484578,-0.118507855
124,1.2400000000000009,0.63119537,-1.4231929,-0.5069198,-4.771163,10.760544,-3.7858374
125,1.2500000000000009,0.15537491,-0.9974363,0.63265884,1.3698653,-1.4752395,-1.641395
126,1.260000000000001,-0.03378246,-0.85639143,0.89846706,3.4303138,-1.6400205,-0.59650993
127,1.270000000000001,-0.03378246,-0.85639143,0.89846706,3.4303138,-1.6400205,-0.59650993
128,1.280000000000001,-0.21269535,-0.7344331,0.6778444,3.4303138,-1.6400205,-0.59650993
129,1.290000000000001,-0.24434352,-0.66522175,0.43886706,7.146665,1.1194105,3.7316232
130,1.300000000000001,-0.1478135,-0.5260063,0.052198168,7.063893,1.8988746,4.5011606
131,1.310000000000001,-0.1153116,-0.5215548,0.01835473,6.894836,2.4929411,4.974734
132,1.320000000000001,0.02555027,-0.4978339,0.0014025208,6.894836,2.4929411,4.974734
133,1.330000000000001,0.02555027,-0.4978339,0.0014025208,5.837428,4.821101,6.371477
134,1.340000000000001,0.2441606,-0.5371045,0.10110346,4.9964194,5.8465915,6.814507
135,1.350000000000001,0.41630477,-0.59137595,0.17799819,4.9964194,5.8465915,6.814507
136,1.360000000000001,0.6784542,-0.6816251,0.24025792,4.162894,5.445253,6.388887
137,1.370000000000001,0.6784542,-0.6816251,0.24025792,4.162894,5.445253,6.388887
138,1.380000000000001,1.1137235,-0.80333954,0.36014298,3.8918226,3.6352592,4.4457245
139,1.390000000000001,1.0018877,-0.6716246,0.3033104,3.8747182,2.0874794,2.9106202
140,1.400000000000001,0.7837042,-0.4679541,0.25916147,3.8588357,0.8564331,1.7828102
141,1.410000000000001,0.47783276,-0.27910164,0.17385161,3.88663,-0.20937407,0.76083267
142,1.420000000000001,0.38392484,-0.22623271,0.12494631,3.881285,-0.7144069,0.23930646
143,1.430000000000001,0.20232888,-0.15067953,0.010122542,3.8047743,-1.1171198,-0.19501872
144,1.440000000000001,0.16513158,-0.1583629,-0.018903542,3.7091737,-1.3646729,-0.46502116
145,1.450000000000001,0.25592956,-0.2992248,-0.04549046,3.7091737,-1.3646729,-0.46502116
146,1.460000000000001,-0.19885308,-1.5411265,-5.195425,1.2733486,-3.4778085,-0.8425359
147,1.470000000000001,1.0532932,-1.0817704,0.13195892,-4.169461,-6.805039,-0.74189585
148,1.480000000000001,1.4213024,-1.5560055,0.17220518,-6.104529,-7.572744,-2.321746
149,1.490000000000001,1.4213024,-1.5560055,0.17220518,-6.104529,-7.572744,-2.321746
150,1.500000000000001,1.9619439,-3.137561,-0.27708933,-6.85177,-3.7169623,-3.98895
151,1.5100000000000011,1.9619439,-3.137561,-0.27708933,-6.85177,-3.7169623,-3.98895
152,1.5200000000000011,1.3317851,-3.3292189,0.12683667,-5.3782105,13.171476,-5.7801595
153,1.5300000000000011,0.9931067,-3.3248892,0.4610635,-5.5491,11.323303,-1.4001031
154,1.5400000000000011,0.9931067,-3.3248892,0.4610635,-5.5491,11.323303,-1.4001031
155,1.5500000000000012,2.4111774,-2.939074,1.0139006,-4.9698467,4.459622,2.3446536
156,1.5600000000000012,1.6502792,-3.254702,0.79553425,-5.6537104,8.388248,1.6574302
157,1.5700000000000012,2.3544667,-2.0503635,1.3391025,-5.6537104,8.388248,1.6574302
158,1.5800000000000012,1.7067459,-1.0573788,-1.5469196,2.733622,0.5777258,0.61941737
159,1.5900000000000012,1.2953194,-1.0884781,-1.0306699,2.0587685,-4.5518622,0.5983425
160,1.6000000000000012,1.012742,-0.86389184,-0.6815032,1.2728904,-7.185608,0.817185
161,1.6100000000000012,0.9043211,-0.6877841,-0.86748964,1.1533136,-6.9397345,0.8373435
162,1.6200000000000012,0.9043211,-0.6877841,-0.86748964,1.1533136,-6.9397345,0.8373435
163,1.6300000000000012,0.5246038,-0.30587152,-1.3906299,0.049021937,-1.0042624,0.495259
164,1.6400000000000012,0.48801628,-0.20568272,-1.3975816,-1.3712398,-0.8184067,0.13561209
165,1.6500000000000012,0.5639963,-0.13031249,-0.8475495,-2.71102,-2.0983222,-0.34223726
166,1.6600000000000013,0.54960525,-0.11829959,0.016159479,-3.6942077,-4.2406263,-1.1775955
167,1.6700000000000013,0.48307696,-0.05963763,0.20336552,-3.6942077,-4.2406263,-1.1775955
168,1.6800000000000013,0.48307696,-0.05963763,0.20336552,-3.7592647,-4.8240027,-1.6441438
169,1.6900000000000013,0.44795296,-0.037136313,0.44002566,-3.719253,-4.944038,-2.03861
170,1.7000000000000013,0.44795296,-0.037136313,0.44002566,-3.719253,-4.944038,-2.03861
171,1.7100000000000013,0.5366167,-0.050185855,0.60290104,-2.7217102,-6.074291,-2.9304733
172,1.7200000000000013,0.5483857,-0.06866254,0.6071086,-2.2175937,-6.720892,-3.2194126
173,1.7300000000000013,0.47405204,-0.084883004,0.5417389,-2.2175937,-6.720892,-3.2194126
174,1.7400000000000013,0.39118138,-0.0962861,0.5001511,-1.8822285,-7.234019,-3.346167
175,1.7500000000000013,0.39118138,-0.0962861,0.5001511,-1.8822285,-7.234019,-3.346167
176,1.7600000000000013,0.34502012,-0.083480485,0.474174,-1.8822285,-7.234019,-3.346167
177,1.7700000000000014,0.34502012,-0.083480485,0.474174,-1.8822285,-7.234019,-3.346167
178,1.7800000000000014,0.34502012,-0.083480485,0.474174,-1.8822285,-7.234019,-3.346167
179,1.7900000000000014,0.4876504,-0.35721594,-1.3737997,-3.4738379,-3.1552718,-1.1071932
180,1.8000000000000014,0.8832222,-0.7766917,-1.7925436,-5.502674,5.180901,-1.0735956
181,1.8100000000000014,1.434169,-1.1478719,-0.9851795,-6.23388,14.065172,-2.250122
182,1.8200000000000014,1.434169,-1.1478719,-0.9851795,-6.23388,14.065172,-2.250122
183,1.8300000000000014,1.434169,-1.1478719,-0.9851795,-6.23388,14.065172,-2.250122
184,1.8400000000000014,1.434169,-1.1478719,-0.9851795,-6.23388,14.065172,-2.250122
185,1.8500000000000014,0.3055666,-1.2220836,0.9604829,0.6433938,0.46578476,-1.6675094
186,1.8600000000000014,-0.031831127,-0.8521839,0.99396044,4.3154573,0.14538592,0.28252518
187,1.8700000000000014,-0.12281204,-0.76961803,0.7810212,5.658292,-0.092240654,1.3613132
188,1.8800000000000014,-0.20684133,-0.6500989,0.23489174,7.009679,-0.0047342055,3.5042286
189,1.8900000000000015,-0.20684133,-0.6500989,0.23489174,7.009679,-0.0047342055,3.5042286
190,1.9000000000000015,-0.20684133,-0.6500989,0.23489174,7.009679,-0.0047342055,3.5042286
191,1.9100000000000015,-0.03683142,-0.5345434,-0.07280912,7.1188707,1.0679451,5.1984634
192,1.9200000000000015,0.05256404,-0.5544836,-0.08189502,6.2581615,3.296229,6.8109946
193,1.9300000000000015,0.19842622,-0.59997404,0.031709168,5.8673606,3.886172,7.069085
194,1.9400000000000015,0.19842622,-0.59997404,0.031709168,5.613699,4.21665,7.078401
195,1.9500000000000015,0.37941238,-0.661502,0.100554645,5.310557,4.353331,6.7798405
196,1.9600000000000015,0.6664413,-0.7508365,0.11573846,5.310557,4.353331,6.7798405
197,1.9700000000000015,1.2048264,-0.91340697,0.15458219,4.743216,3.9330559,4.875621
198,1.9800000000000015,1.188545,-0.77455735,0.22019579,4.572632,2.983313,3.2392657
199,1.9900000000000015,0.9211513,-0.5461904,0.2112928,4.5089493,1.8544341,2.0089831
200,2.0000000000000013,0.63241494,-0.35563052,0.16610725,4.5069637,0.91797775,1.0732902
201,2.010000000000001,0.43734258,-0.26879618,0.11872645,4.525748,0.45463645,0.5725334
202,2.020000000000001,0.43734258,-0.26879618,0.11872645,4.525748,0.45463645,0.5725334
203,2.0300000000000007,-0.31325,-0.18988912,-1.9130994,4.188092,-0.41172317,-0.25427267
204,2.0400000000000005,0.091224834,-0.15141128,-0.14202048,-0.36193767,-3.1867313,0.52855116
205,2.0500000000000003,0.091224834,-0.15141128,-0.14202048,-3.0045407,-5.011386,1.0894781
206,2.06,0.35630128,-0.3055666,0.20946345,-2.5466971,-4.852866,0.7247916
207,2.07,0.5800948,-0.520945,0.23239161,-2.259896,-4.3574543,0.24373524
208,2.0799999999999996,0.9510311,-1.0692697,0.11616532,-2.0948095,-3.6404514,-0.8481864
209,2.0899999999999994,1.7029651,-2.1431127,-0.16183871,-1.9173533,-0.36880988,-2.770274
210,2.099999999999999,2.0739625,-2.8060784,-0.01981823,-1.9173533,-0.36880988,-2.770274
211,2.109999999999999,2.0739625,-2.8060784,-0.01981823,-1.4219415,3.2081115,-4.402811
212,2.1199999999999988,2.7481482,-4.1368265,-0.016220458,-1.1491902,7.101919,-8.565553
213,2.1299999999999986,2.0630474,-4.3364725,-0.16781467,-2.4405594,6.7896147,-7.0799284
214,2.1399999999999983,0.9372498,-3.6446638,-0.054576356,-3.5042286,5.677687,-1.6479617
215,2.149999999999998,2.051827,-2.8557763,-0.118360564,-3.2676709,8.141459,2.0137172
216,2.159999999999998,2.2636688,-2.2789745,-0.7407749,-2.191479,11.516948,1.8988746
217,2.1699999999999977,2.2839139,-1.6441813,-2.640581,-1.6317738,11.312919,1.1362094
218,2.1799999999999975,1.6358271,-1.0830511,-1.9537115,-2.5277603,0.644921,-0.69974613
219,2.1899999999999973,1.1992164,-1.1728734,-0.8707825,-2.8516717,-4.7697887,-1.0685561
220,2.199999999999997,0.9210903,-1.0689038,-0.30959123,-1.9989038,-4.2572727,-0.7153232
221,2.209999999999997,0.7782771,-0.834195,-0.10287185,-1.9989038,-4.2572727,-0.7153232
222,2.2199999999999966,0.6150359,-0.5866806,-0.11146992,-1.2681563,-2.7293458,-0.7464773
223,2.2299999999999964,0.38727868,-0.23763582,-0.40356013,-1.282817,-2.4538457,-0.8846856
224,2.239999999999996,0.38727868,-0.23763582,-0.40356013,-1.282817,-2.4538457,-0.8846856
225,2.249999999999996,0.34148335,-0.14006914,-0.27172315,-1.8559613,-4.2264237,-1.1146764
226,2.259999999999996,0.24178241,0.012683666,0.11281146,-2.030058,-4.918687,-1.2217305
227,2.2699999999999956,0.24178241,0.012683666,0.11281146,-2.1455114,-5.409059,-1.3611605
228,2.2799999999999954,0.24598998,0.04177073,0.3595332,-2.1876612,-5.5681896,-1.4807373
229,2.289999999999995,0.24598998,0.04177073,0.3595332,-2.1876612,-5.5681896,-1.4807373
230,2.299999999999995,0.31575012,0.030977417,0.50905406,-2.0862575,-5.9107323,-1.6242907
231,2.3099999999999947,0.40008432,-0.016647313,0.68540585,-1.3956743,-7.3716164,-1.95034
232,2.3199999999999945,0.40112096,-0.029940773,0.6393056,-0.9242391,-8.530886,-2.0966423
233,2.3299999999999943,0.39282778,-0.019940188,0.5835096,-0.8556695,-9.01011,-2.0770946
234,2.339999999999994,0.37599754,0.015183813,0.4864308,-1.056186,-9.022174,-1.9315559
235,2.349999999999994,0.35136196,0.03603869,0.35337427,-1.597718,-8.547532,-1.4903585
236,2.3599999999999937,0.4050846,-0.017440042,0.13092227,-2.018146,-8.001571,-1.1111639
237,2.3699999999999934,0.4050846,-0.017440042,0.13092227,-2.018146,-8.001571,-1.1111639
238,2.3799999999999932,0.40319425,-0.12872702,-0.060247418,-3.5430183,-4.296368,0.05681047
239,2.389999999999993,0.6504038,-0.4642954,-1.3518472,-4.498259,-0.72097373,0.1693624
240,2.399999999999993,0.6504038,-0.4642954,-1.3518472,-4.498259,-0.72097373,0.1693624
241,2.4099999999999926,1.2406821,-0.72461545,-0.40173078,-5.6925006,12.923771,-1.3745996
242,2.4199999999999924,1.1445789,-1.8571815,-2.435447,-3.8063014,12.357498,-3.5072827
243,2.429999999999992,1.0642694,-1.8880979,-0.69815046,-2.6676486,4.6674685,-2.777299
244,2.439999999999992,0.49466303,-1.5802141,0.4843575,1.6409367,0.15561792,-0.28725937
245,2.4499999999999917,0.49466303,-1.5802141,0.4843575,1.6409367,0.15561792,-0.28725937
246,2.4599999999999915,0.49466303,-1.5802141,0.4843575,1.6409367,0.15561792,-0.28725937
247,2.4699999999999913,0.49466303,-1.5802141,0.4843575,1.6409367,0.15561792,-0.28725937
248,2.479999999999991,-0.13836174,-1.009693,0.27458918,6.31879,0.13622294,6.645756
249,2.489999999999991,0.09085896,-0.94657964,0.07335794,6.5354943,1.1368202,8.698263
250,2.4999999999999907,0.09085896,-0.94657964,0.07335794,6.5354943,1.1368202,8.698263
251,2.5099999999999905,0.09085896,-0.94657964,0.07335794,6.5354943,1.1368202,8.698263
252,2.5199999999999902,0.24269708,-0.97975224,0.07091877,6.425997,1.514793,8.899085
253,2.52999999999999,0.24269708,-0.97975224,0.07091877,6.425997,1.514793,8.899085
254,2.53999999999999,0.24269708,-0.97975224,0.07091877,5.945093,1.51968,6.945996
255,2.5499999999999896,0.85523283,-0.79644895,0.12256813,5.797264,0.67179906,4.638911
256,2.5599999999999894,0.34672755,-0.2912365,-0.020793896,5.7409115,-0.11178834,3.3938146
257,2.569999999999989,0.34672755,-0.2912365,-0.020793896,5.6398134,-0.69226307,2.5809057
258,2.579999999999989,0.34672755,-0.2912365,-0.020793896,5.6398134,-0.69226307,2.5809057
259,2.5899999999999888,0.34672755,-0.2912365,-0.020793896,5.6398134,-0.69226307,2.5809057
260,2.5999999999999885,0.18415709,-0.07067485,-0.8199259,5.0074153,-0.90209526,2.0774
261,2.6099999999999883,-0.037990022,0.039331563,-0.44978234,0.3921755,0.053297993,1.7837266
262,2.619999999999988,-0.10598179,0.0031099375,-0.5026513,-0.3381139,0.07070765,1.8121318
263,2.629999999999988,-0.07860215,-0.06402813,-0.37532678,-1.5102116,-0.2452624,1.9822577
264,2.6399999999999877,-0.07860215,-0.06402813,-0.37532678,-1.5102116,-0.2452624,1.9822577
265,2.6499999999999875,0.010854292,-0.06256463,-0.10006681,-1.7545577,-0.581391,1.8903224
266,2.6599999999999873,0.06305246,-0.07799236,-0.0009146876,-1.7368426,-0.6178902,1.8379408
267,2.669999999999987,0.3553256,-0.43496442,-0.16171674,-1.7443258,-0.47571132,1.4679092
268,2.679999999999987,0.55466646,-0.9977411,-0.36380172,-1.8637499,0.11575896,0.8089383
269,2.6899999999999866,0.55466646,-0.9977411,-0.36380172,-1.8310685,2.0199788,-0.78542
270,2.6999999999999864,1.1693364,-3.913582,0.25855166,-1.0545062,4.7248898,-3.029128
271,2.709999999999986,1.5027096,-4.9944987,0.25763696,-0.6795876,5.9913664,-4.8915033
272,2.719999999999986,1.9085871,-5.7146015,0.30520073,-0.6065892,6.202115,-6.964322
273,2.7299999999999858,1.9082211,-5.707528,0.2441606,-0.7296785,5.6456165,-8.011345
274,2.7399999999999856,1.5559444,-5.087309,0.25300255,-0.8268061,4.60684,-7.6368847
275,2.7499999999999853,0.93432283,-3.4272733,0.260503,-0.6198755,3.491553,-5.950133
276,2.759999999999985,0.5078345,-2.5629544,0.23483077,2.1158845,6.710355,-1.2838861
277,2.769999999999985,0.17665665,-1.2868433,-1.6057035,2.1158845,6.710355,-1.2838861
278,2.7799999999999847,0.36246017,-0.56924057,-3.5341694,0.75228053,1.9758437,0.33826664
279,2.7899999999999845,0.5651549,-0.66930735,-2.3228185,-1.361924,-2.7421741,0.8410087
280,2.7999999999999843,0.5996082,-0.7397383,-1.2714766,-3.276223,-5.2181635,1.1058189
281,2.809999999999984,0.47142997,-0.46277088,-0.5510687,-3.5234706,-4.043317,0.98929626
282,2.819999999999984,0.42191488,-0.2804432,-0.43100074,-3.6914587,-2.3762658,0.7330383
283,2.8299999999999836,0.42191488,-0.2804432,-0.43100074,-3.6914587,-2.3762658,0.7330383
284,2.8399999999999834,0.45197758,-0.10555494,0.0734799,-3.8203511,-1.2547172,0.33857206
285,2.849999999999983,0.43100074,-0.074577525,0.20495099,-3.8203511,-1.2547172,0.33857206
286,2.859999999999983,0.36270407,0.003963646,0.36020395,-3.2391129,-1.5741998,-1.0009027
287,2.869999999999983,0.3582526,0.023598937,0.4042919,-2.8021915,-1.9895881,-1.4283557
288,2.8799999999999826,0.37563166,0.039148625,0.51295674,-2.4390323,-2.296548,-1.7464638
289,2.8899999999999824,0.42746398,0.01750102,0.65552604,-1.8686367,-2.870914,-2.1687243
290,2.899999999999982,0.38660794,0.006707709,0.7020531,-1.2618948,-3.7588065,-2.5428793
291,2.909999999999982,0.31050593,0.0043295207,0.71248055,-0.8385653,-4.4741297,-2.7795897
292,2.9199999999999817,0.24922185,0.013598354,0.69180864,-0.5555819,-5.3562193,-2.871983
293,2.9299999999999815,0.24513626,0.0248795,0.7047972,-0.4344779,-6.646825,-2.821892
294,2.9399999999999813,0.26446667,0.028294332,0.6693683,-0.6383542,-7.5229583,-2.6348145
295,2.949999999999981,0.29001692,0.05055173,0.58796114,-0.8910997,-7.781812,-2.4518604
296,2.959999999999981,0.30831066,0.014147166,0.43362287,-1.4874569,-7.769137,-2.0825922
297,2.9699999999999807,0.35319135,-0.09085896,0.29160237,-2.0983222,-6.814202,-1.7185167
298,2.9799999999999804,0.35319135,-0.09085896,0.29160237,-2.0983222,-6.814202,-1.7185167
299,2.9899999999999802,0.35319135,-0.09085896,0.29160237,-2.0983222,-6.814202,-1.7185167
300,2.99999999999998,1.2385479,-1.048232,-0.38801044,-7.4695077,11.2191515,-4.022395
301,3.00999999999998,1.1260413,-1.1859229,0.18513274,-5.5182514,15.273922,-4.900361
302,3.0199999999999796,1.1260413,-1.1859229,0.18513274,-5.5182514,15.273922,-4.900361
303,3.0299999999999794,0.22592781,-2.2012868,-0.56234986,-2.1326833,15.54988,-4.402964
304,3.039999999999979,0.00042685418,-2.1582968,-0.113421254,2.081218,3.2206342,1.8742872
305,3.049999999999979,-0.08067544,-1.8897444,0.04329521,4.3208027,-0.6220135,5.976858
306,3.0599999999999787,0.006524771,-1.478196,0.10195717,5.5961366,-1.9162843,8.273101
307,3.0699999999999785,0.07689473,-1.3067836,0.07476046,6.303213,-2.084883,9.265451
308,3.0799999999999783,0.17397358,-1.1690316,-0.012195834,6.5500026,-1.7629571,9.59486
309,3.089999999999978,0.31209138,-1.1546406,-0.04268542,6.5348835,-1.5239561,9.55943
310,3.099999999999978,0.47929627,-1.1454936,0.05390558,6.4342437,-1.0381655,9.149387
311,3.1099999999999777,0.56045955,-1.1264682,0.066650234,6.127589,-0.839787,7.7239327
312,3.1199999999999775,0.6358908,-1.0787824,0.050734665,6.127589,-0.839787,7.7239327
313,3.1299999999999772,0.6107673,-0.9198098,-0.023111105,5.7577105,-1.1099422,6.364605
314,3.139999999999977,0.54783684,-0.7267497,-0.03146525,5.433341,-1.5381587,5.661041
315,3.149999999999977,0.54783684,-0.7267497,-0.03146525,5.433341,-1.5381587,5.661041
316,3.1599999999999766,0.54783684,-0.7267497,-0.03146525,5.433341,-1.5381587,5.661041
317,3.1699999999999764,0.43331796,-0.4281347,-0.013842272,4.720919,-2.7832549,3.0509665
318,3.179999999999976,0.10610375,-0.05866196,-0.42081723,4.390136,-2.6505444,2.6618452
319,3.189999999999976,-0.11409202,0.08098034,-1.4125215,0.9240864,0.9841039,2.4145975
320,3.1999999999999758,-0.11409202,0.08098034,-1.4125215,0.9240864,0.9841039,2.4145975
321,3.2099999999999755,-0.11409202,0.08098034,-1.4125215,0.9240864,0.9841039,2.4145975
322,3.2199999999999753,-0.11409202,0.08098034,-1.4125215,0.9240864,0.9841039,2.4145975
323,3.229999999999975,-0.11409202,0.08098034,-1.4125215,0.9240864,0.9841039,2.4145975
324,3.239999999999975,0.046953958,-0.037746105,-0.023050126,-2.9437597,3.059824,1.2670872
325,3.2499999999999747,0.18635234,-0.12976366,0.035550855,-2.9865203,2.9245174,0.7903069
326,3.2599999999999745,0.31135964,-0.37392426,0.10659158,-2.922532,2.6177104,-0.50610185
327,3.2699999999999743,0.31135964,-0.37392426,0.10659158,-2.922532,2.6177104,-0.50610185
328,3.279999999999974,0.31135964,-0.37392426,0.10659158,-2.922532,2.6177104,-0.50610185
329,3.289999999999974,0.400999,-0.86553836,0.26410076,-2.6616926,2.3690882,-2.0412061
330,3.2999999999999736,0.07890704,-3.9962697,0.8963328,1.3733778,1.8802432,-6.1779857
331,3.3099999999999734,0.12500729,-5.6306944,0.41539007,4.067752,2.485458,-6.266256
332,3.319999999999973,0.3488618,-6.1459684,0.11360419,4.1548,2.7191138,-5.532759
333,3.329999999999973,0.3492277,-6.043279,0.06360127,3.3560936,2.531731,-4.2584944
334,3.3399999999999728,0.3222749,-5.0251713,-0.036892395,2.2542455,2.2273674,-2.512336
335,3.3499999999999726,0.37331447,-1.7002212,-3.655152,1.6754507,3.8012617,0.968985
336,3.3599999999999723,0.5353971,-1.4621586,-2.9820032,-1.3538301,2.2414174,1.5202909
337,3.369999999999972,0.5353971,-1.4621586,-2.9820032,-3.4051156,1.0943651,1.449736
338,3.379999999999972,0.5479588,-1.5257597,-1.5985688,-4.425413,0.49434268,1.1814134
339,3.3899999999999717,0.48887,-1.1689097,-0.26343,-4.425413,0.49434268,1.1814134
340,3.3999999999999715,0.48887,-1.1689097,-0.26343,-4.6955686,0.37003163,0.8266534
341,3.4099999999999713,0.3448372,-0.4911872,-0.0515274,-4.1853433,1.135904,-0.06505715
342,3.419999999999971,0.37977824,-0.27007675,-0.018781584,-3.98727,1.5477798,-0.5352707
343,3.429999999999971,0.40173078,-0.1381788,0.19324298,-3.836081,1.7455474,-1.0978775
344,3.4399999999999706,0.38691282,-0.072016396,0.32386038,-3.653585,1.715615,-1.4624114
345,3.4499999999999704,0.38691282,-0.072016396,0.32386038,-3.1334333,1.3127494,-2.1033618
346,3.45999999999997,0.30044436,0.021403689,0.4344156,-3.1334333,1.3127494,-2.1033618
347,3.46999999999997,0.30044436,0.021403689,0.4344156,-3.1334333,1.3127494,-2.1033618
348,3.47999999999997,0.3032494,0.004268542,0.5608864,-1.6997325,-0.26313022,-3.265991
349,3.4899999999999696,0.2795895,-0.006829667,0.6436351,-1.1702651,-1.377043,-3.5271358
350,3.4999999999999694,0.20702426,0.0039026667,0.6281464,-0.5323691,-3.2580497,-3.7270415
351,3.509999999999969,0.088968605,0.019574312,0.57655805,-0.23548855,-5.7167826,-3.7187948
352,3.519999999999969,-0.034941066,0.051771317,0.52033526,-0.62964934,-9.333563,-3.0176742
353,3.5299999999999687,-0.080492504,0.104396336,0.4622221,-0.62964934,-9.333563,-3.0176742
354,3.5399999999999685,0.06555261,0.07713865,0.4966753,-1.0161743,-10.021397,-2.6392434
355,3.5499999999999683,0.28739482,-0.22580586,-0.023659917,-2.3550382,-8.542187,-1.2370021
356,3.559999999999968,0.28739482,-0.22580586,-0.023659917,-2.3550382,-8.542187,-1.2370021
357,3.569999999999968,0.49582162,-0.9974972,-1.967188,-4.501466,-4.0285034,-1.2226468
358,3.5799999999999677,0.7059558,-1.0570738,-0.5954616,-7.4323974,2.4248295,-1.8060231
359,3.5899999999999674,0.7059558,-1.0570738,-0.5954616,-7.4323974,2.4248295,-1.8060231
360,3.5999999999999672,0.85407424,-1.0068271,0.322031,-7.7648606,4.535827,-2.3819163
361,3.609999999999967,0.90474784,-1.7169905,-0.53808016,-2.8499918,13.392152,-5.210986
362,3.619999999999967,0.74486053,-1.8194354,-0.8707825,-1.5459472,15.541328,-5.2128186
363,3.6299999999999666,0.74486053,-1.8194354,-0.8707825,-1.5459472,15.541328,-5.2128186
364,3.6399999999999664,-0.43301308,-2.0069463,-0.53869,2.250275,6.8219905,-0.7279987
365,3.649999999999966,-0.620707,-1.7397356,-0.0009756667,3.881285,0.64721173,4.5045204
366,3.659999999999966,-0.2248302,-1.352396,0.10787215,4.730846,-0.9297369,8.094728
367,3.6699999999999657,-0.07915096,-1.2023262,0.11866546,5.087133,-0.9579894,9.617768
368,3.6799999999999655,0.054637335,-1.1208581,0.04542948,5.2097645,-0.6815729,10.265743
369,3.6899999999999653,0.22659859,-1.0915271,0.042441502,5.2138877,-0.3052799,10.543229
370,3.699999999999965,0.43240327,-1.0782946,0.11933623,5.2085423,0.124311075,10.466718
371,3.709999999999965,0.59344923,-0.96225125,0.13122717,5.1670036,0.45738536,9.808205
372,3.7199999999999647,0.5969251,-0.8322436,0.09555435,5.0617824,0.4456262,8.984148
373,3.7299999999999645,0.46990547,-0.61064535,-0.012195834,4.6859474,0.08582657,7.543422
374,3.7399999999999642,0.46990547,-0.61064535,-0.012195834,4.6859474,0.08582657,7.543422
375,3.749999999999964,0.3192869,-0.31453055,-0.087566085,4.1115813,-0.84788096,6.0107613
376,3.759999999999964,0.32282373,-0.15110639,-0.793217,3.4316883,-0.48334712,5.3357553
377,3.7699999999999636,0.32282373,-0.15110639,-0.793217,3.4316883,-0.48334712,5.3357553
378,3.7799999999999634,0.2139759,0.018842563,-1.0760994,-1.6843082,5.5967474,4.38418
379,3.789999999999963,0.2139759,0.018842563,-1.0760994,-2.6584857,6.365216,4.0506473
380,3.799999999999963,0.19177948,-0.040734082,-0.4732593,-2.6584857,6.365216,4.0506473
381,3.8099999999999627,0.1475086,-0.109640546,0.0061588963,-2.9700267,4.8902817,2.728735
382,3.8199999999999625,-0.08963938,-0.4211831,-0.47484478,-1.6184875,-0.70722926,2.031127
383,3.8299999999999623,0.14836231,-0.36447248,0.17403455,0.120493166,-5.4939694,1.4807373
384,3.839999999999962,0.14836231,-0.36447248,0.17403455,0.120493166,-5.4939694,1.4807373
385,3.849999999999962,0.14836231,-0.36447248,0.17403455,0.120493166,-5.4939694,1.4807373
386,3.8599999999999617,0.14836231,-0.36447248,0.17403455,0.120493166,-5.4939694,1.4807373
387,3.8699999999999615,0.47813767,-0.85425717,-0.006219875,2.0018053,-8.823795,-1.4188873
388,3.8799999999999613,0.14043503,-3.0914,0.14263028,-0.9828822,-10.257191,-6.733873
389,3.889999999999961,-0.39642558,-4.364157,0.48136955,-2.2420282,-9.502772,-7.098407
390,3.899999999999961,-0.39642558,-4.364157,0.48136955,-2.2420282,-9.502772,-7.098407
391,3.9099999999999606,-0.39642558,-4.364157,0.48136955,-2.2420282,-9.502772,-7.098407
392,3.9199999999999604,-0.39642558,-4.364157,0.48136955,-2.2420282,-9.502772,-7.098407
393,3.92999999999996,-0.39642558,-4.364157,0.48136955,-2.2420282,-9.502772,-7.098407
394,3.93999999999996,-0.39642558,-4.364157,0.48136955,0.93370754,10.84469,1.2521211
395,3.9499999999999598,-0.39642558,-4.364157,0.48136955,0.93370754,10.84469,1.2521211
396,3.9599999999999596,0.060125455,-0.9311519,-2.4596555,5.0764427,9.812481,1.1736249
397,3.9699999999999593,0.060125455,-0.9311519,-2.4596555,5.0764427,9.812481,1.1736249
398,3.979999999999959,0.060125455,-0.9311519,-2.4596555,5.0764427,9.812481,1.1736249
399,3.989999999999959,0.50191957,-0.52765274,-3.0142612,-2.2508857,4.2899537,-0.8781188
400,3.9999999999999587,0.2309891,-0.5904003,0.52801865,-5.3846245,2.7496572,-2.9970577
401,4.009999999999959,0.25653934,-0.3905106,0.6208289,-4.6412015,2.060143,-3.5277467
402,4.019999999999959,0.26471058,-0.23074517,0.60430354,-3.987881,1.669342,-3.9061778
403,4.0299999999999585,0.26471058,-0.23074517,0.60430354,-3.987881,1.669342,-3.9061778
404,4.039999999999958,0.20928052,-0.12299499,0.72083473,-2.617863,0.34284812,-4.563774
405,4.049999999999958,0.16531453,-0.12903193,0.73461604,-1.8797851,-0.6927212,-4.78109
406,4.059999999999958,0.05945469,-0.16665606,0.76913023,-0.98853266,-2.9307787,-4.902041
407,4.069999999999958,-0.023233064,-0.1314101,0.6767468,-0.54137933,-4.5840855,-4.820338
408,4.079999999999957,-0.10445731,-0.093054205,0.4873455,-0.54137933,-4.5840855,-4.820338
409,4.089999999999957,-0.10445731,-0.093054205,0.4873455,-0.49571714,-6.7231827,-4.5958447
410,4.099999999999957,-0.17385161,-0.059515666,0.4379524,-1.0456486,-8.959408,-4.0016255
411,4.109999999999957,-0.120067984,-0.06280854,0.52234757,-2.2629502,-10.283,-2.5321891
412,4.119999999999957,-0.120067984,-0.06280854,0.52234757,-2.2629502,-10.283,-2.5321891
413,4.129999999999956,-0.017744938,-0.09768862,0.5496662,-2.5776987,-9.804387,-1.9294178
414,4.139999999999956,0.11592139,-0.2051949,0.649794,-2.6526823,-8.150011,-1.3261884
415,4.149999999999956,0.48100364,-1.1682999,-0.8005345,-5.0362787,2.440254,-1.6148223
416,4.159999999999956,0.7292499,-1.0353043,0.6383299,-5.039638,5.96907,-2.3070853
417,4.1699999999999555,0.71174884,-1.0671964,1.1999481,-5.039638,5.96907,-2.3070853
418,4.179999999999955,0.49496788,-1.4969776,0.8995037,-1.0526736,9.495442,-3.5100317
419,4.189999999999955,0.49496788,-1.4969776,0.8995037,-1.0526736,9.495442,-3.5100317
420,4.199999999999955,-0.5375314,-2.678083,-1.1021374,3.186884,12.234562,-1.0343475
421,4.209999999999955,-0.5375314,-2.678083,-1.1021374,3.186884,12.234562,-1.0343475
422,4.2199999999999545,-0.7686424,-2.7764425,-0.79132664,3.6604574,2.891225,5.7797017
423,4.229999999999954,-0.3187381,-2.1698828,-0.06433302,3.61113,0.53038377,8.076708
424,4.239999999999954,-0.10683551,-1.8588281,0.008537084,3.4999523,-0.5412266,9.422443
425,4.249999999999954,0.19873111,-1.6002764,0.10884781,3.1812334,-1.0096076,10.085538
426,4.259999999999954,0.32282373,-1.4824035,0.15586275,3.1812334,-1.0096076,10.085538
427,4.269999999999953,0.44856274,-1.3042834,0.15006974,3.133586,-1.1522446,9.609827
428,4.279999999999953,0.45588025,-1.0310358,0.0863465,3.0810516,-1.4078916,8.672301
429,4.289999999999953,0.3770952,-0.5576545,-0.02207446,2.7736337,-1.817935,6.905526
430,4.299999999999953,0.30373722,-0.34953257,-0.0219525,2.6137397,-2.1206186,5.9698334
431,4.3099999999999525,0.26306412,-0.22306179,-0.025428312,2.6137397,-2.1206186,5.9698334
432,4.319999999999952,0.16482669,-0.13506886,-0.05427146,2.5789204,-2.2609649,5.4061575
433,4.329999999999952,0.16482669,-0.13506886,-0.05427146,2.58396,-2.383749,4.910135
434,4.339999999999952,0.24098967,0.23605035,-2.6680825,0.22021692,1.64674,4.3757806
435,4.349999999999952,0.20409729,0.14513041,-1.7858359,-2.8820622,6.274808,4.072944
436,4.3599999999999515,0.20409729,0.14513041,-1.7858359,-2.8820622,6.274808,4.072944
437,4.369999999999951,0.07341892,0.38819337,-1.8768778,-4.8075094,0.41905355,2.930015
438,4.379999999999951,0.07341892,0.38819337,-1.8768778,-4.8075094,0.41905355,2.930015
439,4.389999999999951,0.18866955,0.02207446,0.10433535,-0.9934196,-8.0844965,1.7864754
440,4.399999999999951,0.23995303,-0.013659334,0.2617226,-0.17180584,-7.5141006,1.1262828
441,4.40999999999995,0.23995303,-0.013659334,0.2617226,-0.17180584,-7.5141006,1.1262828
442,4.41999999999995,0.22495215,-0.08933448,0.25178298,-0.17180584,-7.5141006,1.1262828
443,4.42999999999995,0.23476979,-0.047319833,0.26452765,0.30543262,-6.50938,0.09865474
444,4.43999999999995,0.22903776,-0.57857037,0.27391842,0.30543262,-6.50938,0.09865474
445,4.4499999999999496,0.2239155,-0.16750978,0.20062146,0.41370848,-5.8485765,-0.84894997
446,4.459999999999949,-1.6144235,-4.5931334,1.1566528,-0.7124216,-0.1826487,-3.3664784
447,4.469999999999949,-1.6144235,-4.5931334,1.1566528,-1.4908166,4.586071,-3.430161
448,4.479999999999949,-2.6446664,-6.287013,0.79077786,-1.9711094,14.04532,-0.13607024
449,4.489999999999949,-2.3607476,-6.193532,0.78925335,-1.6218473,14.2742405,1.2023355
450,4.4999999999999485,-1.2475119,-4.275981,0.87816095,5.361106,6.8203106,1.2403619
451,4.509999999999948,-0.9823134,-3.5395358,-0.064820856,7.840608,2.3587034,1.1985176
452,4.519999999999948,-0.9823134,-3.5395358,-0.064820856,7.840608,2.3587034,1.1985176
453,4.529999999999948,-0.6778444,-2.5924072,-0.272272,7.5864882,0.42088616,0.89904094
454,4.539999999999948,-0.6778444,-2.5924072,-0.272272,7.5864882,0.42088616,0.89904094
455,4.549999999999947,-0.6778444,-2.5924072,-0.272272,7.5864882,0.42088616,0.89904094
456,4.559999999999947,-0.33319017,-1.1937891,-2.6041155,3.8374555,7.4160566,0.4196644
457,4.569999999999947,0.14232537,-0.45472166,-0.44917256,-2.2661574,5.8013873,-2.1090124
458,4.579999999999947,0.17921777,-0.39362052,-0.01975725,-2.4485006,4.584849,-2.6557367
459,4.589999999999947,0.17921777,-0.39362052,-0.01975725,-2.4485006,4.584849,-2.6557367
460,4.599999999999946,0.17921777,-0.39362052,-0.01975725,-2.4485006,4.584849,-2.6557367
461,4.609999999999946,0.17921777,-0.39362052,-0.01975725,-2.4485006,4.584849,-2.6557367
462,4.619999999999946,0.17379062,-0.2883095,0.1694611,-2.4394903,3.9202278,-3.1019738
463,4.629999999999946,0.11549455,0.0070126047,0.12086072,-1.6190983,1.6487253,-4.0453024
464,4.6399999999999455,0.11336028,0.018781584,0.13189794,-1.5457945,1.4208726,-4.130671
465,4.649999999999945,0.10049367,0.017135147,0.10451829,-1.5457945,1.4208726,-4.130671
466,4.659999999999945,0.10049367,0.017135147,0.10451829,-1.5457945,1.4208726,-4.130671
467,4.669999999999945,0.10049367,0.017135147,0.10451829,-1.5457945,1.4208726,-4.130671
468,4.679999999999945,0.061893854,0.00798827,0.06524771,-2.278833,-2.645352,-4.5700355
469,4.689999999999944,-0.0075004376,-0.025001459,0.10299382,-3.3206635,-5.620113,-4.3429465
470,4.699999999999944,0.028904125,-0.052076213,0.38776654,-3.8712058,-7.396509,-4.0197988
471,4.709999999999944,0.0866514,-0.1074453,0.49478498,-4.1899247,-8.595485,-3.6743546
472,4.719999999999944,0.16665606,-0.18604743,0.58472925,-4.3223295,-9.072876,-3.240182
473,4.729999999999944,0.18860857,-0.22373258,0.6570505,-4.241237,-8.793711,-3.019354
474,4.739999999999943,0.18934031,-0.29105356,0.62332904,-3.7432294,-7.579158,-2.6481009
475,4.749999999999943,0.15061855,-0.40118194,0.558996,-3.26706,-6.3809457,-2.4726298
476,4.759999999999943,0.10896978,-1.5821655,-1.9307225,-3.179248,2.0169244,-2.724459
477,4.769999999999943,0.6168043,-1.6894279,-0.070613876,-2.0920608,15.082416,-3.816075
478,4.7799999999999425,0.5485686,-1.7132096,0.6843692,1.0772609,20.369453,-4.49551
479,4.789999999999942,0.11909231,-2.3994083,0.75717837,1.0772609,20.369453,-4.49551
480,4.799999999999942,0.11909231,-2.3994083,0.75717837,7.2790704,17.45639,-3.3912184
481,4.809999999999942,0.11909231,-2.3994083,0.75717837,7.2790704,17.45639,-3.3912184
482,4.819999999999942,-1.2394016,-2.5972857,-1.7514437,9.122204,2.2197316,2.3816109
483,4.8299999999999415,-0.62991476,-2.125063,-0.07238227,3.801567,-1.3025174,7.6634574
484,4.839999999999941,-0.62991476,-2.125063,-0.07238227,2.0780108,-1.2977833,9.74941
485,4.849999999999941,-0.33361703,-2.0750601,0.055247124,0.05955936,-1.7806722,11.15165
486,4.859999999999941,-0.08689531,-1.9537115,0.023050126,-0.8718574,-2.7627907,10.61638
487,4.869999999999941,0.19208437,-1.6665606,-0.02201348,-0.8718574,-2.7627907,10.61638
488,4.87999999999994,0.45100194,-1.0290844,0.085309856,-1.8376354,-5.005277,8.028449
489,4.88999999999994,0.48362577,-0.88267344,0.096042186,-1.8678732,-5.3496523,7.3531375
490,4.89999999999994,0.48990667,-0.39795005,0.15933856,-1.6862935,-5.917146,5.1338644
491,4.90999999999994,0.4241711,-0.24824621,0.15976542,-1.4978416,-5.947537,4.3852487
492,4.9199999999999395,0.4241711,-0.24824621,0.15976542,-1.4978416,-5.947537,4.3852487
493,4.929999999999939,0.16842447,0.013110521,0.08524887,-0.65316767,-5.596595,2.992018
494,4.939999999999939,0.14067894,0.033355605,0.068174705,-0.49877146,-5.5310793,2.8861856
495,4.949999999999939,0.14067894,0.033355605,0.068174705,-0.0346666,-5.3404894,2.6780334
496,4.959999999999939,0.09342009,0.10409144,0.026891813,0.3052799,-5.1567717,2.534938
497,4.9699999999999385,0.09342009,0.10409144,0.026891813,0.3052799,-5.1567717,2.534938
498,4.979999999999938,-0.398072,0.4556973,-1.3575792,-3.4179437,8.195368,3.5392005
499,4.989999999999938,-0.06085721,0.35563052,-0.5478978,-3.4179437,8.195368,3.5392005
500,4.999999999999938,0.15385045,0.25891754,0.033843435,0.48090366,-2.7424796,1.8128953
501,5.009999999999938,0.07408969,0.08232188,-0.17580293,1.7806722,-4.3327146,0.54199016
502,5.019999999999937,0.04762473,-0.042502478,-0.43520832,1.8886427,-2.796541,-0.25152376
503,5.029999999999937,0.24312395,-0.029270003,-0.045551438,1.8153389,-1.5564847,-1.4731015
504,5.039999999999937,0.20110929,-0.5664965,0.13366634,1.6780468,-1.6355917,-2.3900104
505,5.049999999999937,0.20110929,-0.5664965,0.13366634,1.2710578,-1.7933476,-3.997044
506,5.0599999999999365,-0.1806203,-1.0036561,0.2570272,1.0195341,-1.6362026,-4.7552805
507,5.069999999999936,-3.488862,-4.777718,1.1484207,0.3727805,0.64599,-5.4611354
508,5.079999999999936,-3.488862,-4.777718,1.1484207,0.120493166,4.7919326,-3.1627548
509,5.089999999999936,-3.7321079,-5.9692507,0.57680196,-0.97433007,8.657946,2.9741502
510,5.099999999999936,-3.7321079,-5.9692507,0.57680196,-1.5796975,6.1198006,2.791196
511,5.1099999999999355,-1.5182594,-3.73473,0.42581752,-0.5181664,3.231019,1.8530598
512,5.119999999999935,-1.3164183,-2.4899623,0.07091877,3.7836993,-6.7557116,0.95356065
513,5.129999999999935,-1.2053142,-2.087134,-0.07030898,4.7461176,-9.333868,0.82711154
514,5.139999999999935,0.07451654,-0.3208724,-5.129202,4.7378707,-3.3589952,0.9224065
515,5.149999999999935,0.12171442,-0.48752844,-2.8397388,2.1096232,7.039611,0.82512623
516,5.159999999999934,0.31251824,-0.40538952,-1.4758178,0.116980694,11.144014,-0.010537425
517,5.169999999999934,0.39081547,-0.31050593,-0.77449644,-0.39477167,9.322567,-1.2223413
518,5.179999999999934,0.42661023,-0.2836141,-0.36166742,-0.5015204,7.6217656,-1.8975002
519,5.189999999999934,0.4191708,-0.19763349,-0.0046344167,-0.5920811,5.715408,-2.96178
520,5.199999999999934,0.42002448,-0.10939662,0.15409435,-0.6750061,4.7309985,-3.8330266
521,5.209999999999933,0.34532502,-0.06671121,0.08610259,-0.72387534,4.0340014,-4.3968554
522,5.219999999999933,0.2596493,-0.047990605,0.014817937,-0.8943067,2.9970577,-4.9087605
523,5.229999999999933,0.21922012,-0.05116152,0.015427729,-0.8943067,2.9970577,-4.9087605
524,5.239999999999933,0.21922012,-0.05116152,0.015427729,-1.467451,0.7466301,-5.5171824
525,5.2499999999999325,0.21922012,-0.05116152,0.015427729,-1.467451,0.7466301,-5.5171824
526,5.259999999999932,-0.06415008,-0.1355567,0.084761046,-3.5604281,-4.1723623,-5.6729527
527,5.269999999999932,-0.06726002,-0.15964346,0.16982698,-3.5604281,-4.1723623,-5.6729527
528,5.279999999999932,-0.06726002,-0.15964346,0.16982698,-4.2670465,-5.4837375,-5.445558
529,5.289999999999932,-0.06726002,-0.15964346,0.16982698,-4.2670465,-5.4837375,-5.445558
530,5.299999999999931,-0.06726002,-0.15964346,0.16982698,-4.2670465,-5.4837375,-5.445558
531,5.309999999999931,-0.06726002,-0.15964346,0.16982698,-4.2670465,-5.4837375,-5.445558
532,5.319999999999931,0.083053626,-0.4159389,0.8011443,-4.8866167,-6.8598638,-3.2968397
533,5.329999999999931,0.0065857503,-0.5792411,0.93834746,-4.032169,-4.9301405,-2.7892108
534,5.339999999999931,-0.06335735,-0.7138221,0.7472997,-3.228881,-0.97433007,-2.346486
535,5.34999999999993,-0.06335735,-0.7138221,0.7472997,-3.228881,-0.97433007,-2.346486
536,5.35999999999993,-0.06335735,-0.7138221,0.7472997,-3.228881,-0.97433007,-2.346486
537,5.36999999999993,-0.06335735,-0.7138221,0.7472997,-3.228881,-0.97433007,-2.346486
538,5.37999999999993,0.18684018,-1.7976048,0.4463675,-3.228881,-0.97433007,-2.346486
539,5.3899999999999295,-0.1308613,-2.833519,0.81120586,3.430161,18.566792,-2.9404
540,5.399999999999929,-1.0462805,-2.4049573,-1.727052,7.0327387,-0.6188065,4.1259365
541,5.409999999999929,-1.0462805,-2.4049573,-1.727052,7.0327387,-0.6188065,4.1259365
542,5.419999999999929,-1.0462805,-2.4049573,-1.727052,7.0327387,-0.6188065,4.1259365
543,5.429999999999929,-0.44777006,-1.402216,0.052625023,1.8965839,-1.6204728,7.8998623
544,5.4399999999999284,-0.16891229,-1.0651841,0.045917314,0.8042041,-1.8073975,8.301048
545,5.449999999999928,0.03469715,-0.86614805,0.036282603,0.3051272,-1.956296,7.96217
546,5.459999999999928,0.03469715,-0.86614805,0.036282603,0.3051272,-1.956296,7.96217
547,5.469999999999928,0.03469715,-0.86614805,0.036282603,0.3051272,-1.956296,7.96217
548,5.479999999999928,0.35965514,-0.3679483,0.050429773,-0.31780264,-2.4860687,5.8293343
549,5.489999999999927,0.40313327,-0.16226557,0.1185435,-0.21655174,-2.789058,4.425566
550,5.499999999999927,0.37770495,-0.045856334,0.15189911,-0.016646078,-2.7974575,3.7833939
551,5.509999999999927,0.37770495,-0.045856334,0.15189911,0.2359467,-2.745381,3.2513304
552,5.519999999999927,0.23806266,0.06043036,0.114153,0.5508477,-2.7172813,2.7809641
553,5.5299999999999265,0.18775485,0.06872352,0.07305304,0.7687739,-2.7027733,2.59633
554,5.539999999999926,0.13561767,0.0851879,0.004024625,1.0997101,-2.7035367,2.3426683
555,5.549999999999926,0.11982407,0.09140777,-0.026830835,1.2577715,-2.75882,2.2020166
556,5.559999999999926,0.11262852,0.123055965,-0.1554359,1.4277447,-2.9020681,2.0176878
557,5.569999999999926,-1.2924535,0.15409435,-4.402208,1.4277447,-2.9020681,2.0176878
558,5.5799999999999255,-0.4238662,-0.032014064,-1.416668,-4.288427,5.218011,2.9674306
559,5.589999999999925,0.094517715,0.058113147,-0.0071345624,-2.6555839,-1.9240729,2.2864685
560,5.599999999999925,0.15275282,0.077382565,0.10378654,-1.7224873,-3.9500074,1.8577939
561,5.609999999999925,0.15275282,0.077382565,0.10378654,-0.5337435,-5.7528234,0.9967794
562,5.619999999999925,0.19531627,0.07305304,0.14403279,-0.5337435,-5.7528234,0.9967794
563,5.629999999999924,0.36306998,-0.1232389,0.053783625,-0.6082691,-5.677229,-3.4826956
564,5.639999999999924,0.155131,-0.8720021,0.09067602,-1.1136073,-5.319873,-4.689918
565,5.649999999999924,-2.291902,-3.5374622,0.962922,-2.1326833,-2.3693936,-5.8438425
566,5.659999999999924,-4.0350523,-5.190669,1.3741045,-2.1766655,2.9520063,-3.6112826
567,5.6699999999999235,-4.0350523,-5.190669,1.3741045,-2.1766655,2.9520063,-3.6112826
568,5.679999999999923,-3.9632802,-6.427082,1.40807,0.73639804,7.513948,2.9014573
569,5.689999999999923,-2.4569116,-5.2659173,0.5936322,4.845383,2.8280005,2.692236
570,5.699999999999923,-1.4338032,-3.343061,-0.071772486,6.1943264,0.2845105,0.550695
571,5.709999999999923,-1.0414022,-1.846998,-2.057315,6.5387015,1.2450961,-0.10308351
572,5.7199999999999225,-0.436184,-1.3419076,-2.842117,5.806732,5.7555723,-0.030848695
573,5.729999999999922,0.04530752,-0.9091384,-2.40014,3.4585662,11.104767,-0.3501785
574,5.739999999999922,0.14915505,-0.6694903,-2.0512173,2.2336287,11.141418,-0.8181013
575,5.749999999999922,0.14933798,-0.42947626,-1.2218397,0.46975538,7.385208,-1.7814357
576,5.759999999999922,0.14683785,-0.35813063,-0.5876562,-0.5340489,4.7778826,-2.4523184
577,5.769999999999921,0.30312744,-0.106957465,0.09006623,-1.1221595,3.7395644,-2.947272
578,5.779999999999921,0.30312744,-0.106957465,0.09006623,-1.5519031,2.8803823,-3.532481
579,5.789999999999921,0.31837222,-0.052746978,0.096347086,-1.733941,2.3316727,-3.9521453
580,5.799999999999921,0.29977357,0.020001167,0.15665549,-1.8408424,1.7968601,-4.4399214
581,5.809999999999921,0.2952611,0.0049393126,0.034514207,-1.8924606,1.3515394,-4.864167
582,5.81999999999992,0.2128173,-0.0041465834,-0.054881252,-2.1429152,0.6953174,-5.159215
583,5.82999999999992,0.2128173,-0.0041465834,-0.054881252,-2.4958427,-0.049480084,-5.412724
584,5.83999999999992,0.2128173,-0.0041465834,-0.054881252,-2.893974,-0.7504479,-5.554292
585,5.84999999999992,-0.038538832,-0.14586218,0.012561709,-2.893974,-0.7504479,-5.554292
586,5.8599999999999195,-0.038538832,-0.14586218,0.012561709,-2.893974,-0.7504479,-5.554292
587,5.869999999999919,-0.0012195833,-0.28062615,0.31721362,-5.7053285,-4.985729,-5.039638
588,5.879999999999919,0.023720896,-0.32471406,0.48173544,-6.498079,-6.902319,-4.3785295
589,5.889999999999919,0.10189619,-0.39179114,0.70065063,-6.557791,-7.8181586,-3.66061
590,5.899999999999919,0.15635058,-0.441977,0.8938326,-6.1779857,-7.327787,-3.0621147
591,5.909999999999918,0.15635058,-0.441977,0.8938326,-6.1779857,-7.327787,-3.0621147
592,5.919999999999918,0.1753151,-0.47606438,1.0172545,-5.546809,-6.2587724,-2.6355782
593,5.929999999999918,0.1753151,-0.47606438,1.0172545,-5.546809,-6.2587724,-2.6355782
594,5.939999999999918,0.1753151,-0.47606438,1.0172545,-5.546809,-6.2587724,-2.6355782
595,5.949999999999918,0.125861,-0.5046636,1.0117663,-4.402964,-4.4542766,-2.2209532
596,5.959999999999917,0.25678328,-2.5531368,0.13183697,6.753879,19.326555,-2.742785
597,5.969999999999917,-0.29019985,-2.6975355,-0.5189937,10.423957,11.155468,-1.4932601
598,5.979999999999917,-0.29019985,-2.6975355,-0.5189937,10.423957,11.155468,-1.4932601
599,5.989999999999917,-0.29019985,-2.6975355,-0.5189937,10.423957,11.155468,-1.4932601
600,5.9999999999999165,-0.29019985,-2.6975355,-0.5189937,10.423957,11.155468,-1.4932601
601,6.009999999999916,-0.7662642,-1.3616039,-0.045124583,3.7737727,-4.1867175,4.7083964
602,6.019999999999916,-0.7662642,-1.3616039,-0.045124583,3.7737727,-4.1867175,4.7083964
603,6.029999999999916,-0.6161945,-1.2288522,0.32221392,3.4391713,-3.9032762,6.230673
604,6.039999999999916,-0.28105298,-1.1278098,0.18738899,3.0068314,-1.3642148,8.107709
605,6.0499999999999154,-0.039209604,-1.0160959,0.061710916,2.4190264,-0.8578075,8.041888
606,6.059999999999915,-0.039209604,-1.0160959,0.061710916,2.4190264,-0.8578075,8.041888
607,6.069999999999915,-0.039209604,-1.0160959,0.061710916,2.4190264,-0.8578075,8.041888
608,6.079999999999915,-0.039209604,-1.0160959,0.061710916,2.4190264,-0.8578075,8.041888
609,6.089999999999915,0.37343642,-0.31196943,0.006524771,-0.2779437,-2.0131063,4.501466
610,6.099999999999914,0.29837108,-0.11476279,0.0866514,-0.39629883,-2.349693,3.6114354
611,6.109999999999914,0.23111105,-0.045002624,0.09000525,-0.311694,-2.4828618,3.1513011
612,6.119999999999914,0.1624485,-0.0016464376,0.056649648,-0.1908954,-2.5289822,2.8538096
613,6.129999999999914,0.13470298,0.031709168,0.033538543,-0.0076358155,-2.5514314,2.5700629
614,6.1399999999999135,0.14092286,0.08677336,0.011464084,0.124005646,-2.5324945,2.4275784
615,6.149999999999913,0.14092286,0.08677336,0.011464084,0.25717425,-2.530662,2.2866213
616,6.159999999999913,0.114701815,0.119641125,-0.01841571,0.505491,-2.6198483,2.049911
617,6.169999999999913,0.10482319,0.096469045,-0.08549279,0.6740898,-2.6740627,1.7881553
618,6.179999999999913,-0.64253753,-0.29215118,-2.912182,-4.0190353,6.3508606,1.9269744
619,6.1899999999999125,-0.46600276,-0.25336844,-2.253973,-5.0675855,-1.2197452,1.1746938
620,6.199999999999912,0.20062146,-0.2579419,-0.15135029,-5.0675855,-1.2197452,1.1746938
621,6.209999999999912,0.20062146,-0.2579419,-0.15135029,-3.8340957,-7.230048,0.06337727
622,6.219999999999912,0.34880084,-0.37929043,0.4656979,-2.720183,-6.9698195,-3.467424
623,6.229999999999912,0.34880084,-0.37929043,0.4656979,-2.720183,-6.9698195,-3.467424
624,6.239999999999911,0.16580236,-0.7080291,0.5882661,-2.520888,-6.230978,-4.785671
625,6.249999999999911,-3.6102717,-4.5467896,1.2101315,-0.99128157,0.6032294,-5.4953437
626,6.259999999999911,-4.6206965,-5.5716667,1.1794591,-0.99128157,0.6032294,-5.4953437
627,6.269999999999911,-3.8846169,-5.71326,0.9147485,3.8292089,4.249026,3.042109
628,6.2799999999999105,-3.0573735,-5.6478295,0.71900535,4.6751046,5.1696,4.430911
629,6.28999999999991,-0.82736534,-3.129329,-0.10634767,5.435021,5.3333116,3.1077769
630,6.29999999999991,-0.82736534,-3.129329,-0.10634767,6.0887995,3.4637587,1.4459181
631,6.30999999999991,-0.47923526,-2.08378,-1.5918002,6.970278,1.120785,0.6072
632,6.31999999999991,0.14147167,-1.2785501,-3.4808738,5.551085,6.1107903,0.27198774
633,6.3299999999999095,0.14147167,-1.2785501,-3.4808738,0.7545713,10.399064,-1.2318097
634,6.339999999999909,0.14147167,-1.2785501,-3.4808738,0.7545713,10.399064,-1.2318097
635,6.349999999999909,-0.002927,-0.6159506,-0.5953396,-0.34300083,7.111235,-1.929876
636,6.359999999999909,0.07969977,-0.46020976,-0.21873227,-0.86467975,4.6770897,-2.34389
637,6.369999999999909,0.13147108,-0.33154374,-0.012256813,-1.1348349,3.2968397,-2.7217102
638,6.379999999999908,0.18452296,-0.10482319,0.057625312,-1.5108224,1.9984456,-3.331659
639,6.389999999999908,0.24452646,-0.037685126,0.06274756,-1.6412421,1.5234979,-3.646102
640,6.399999999999908,0.24452646,-0.037685126,0.06274756,-1.6412421,1.5234979,-3.646102
641,6.409999999999908,0.24452646,-0.037685126,0.06274756,-1.7128662,1.1528554,-3.9165626
642,6.419999999999908,0.20495099,-0.020062147,0.008537084,-2.0412061,0.0954477,-4.387845
643,6.429999999999907,0.15006974,-0.03164819,0.000365875,-2.3851233,-0.73471814,-4.607909
644,6.439999999999907,0.07110171,-0.0629305,-0.0336605,-2.770274,-1.4475979,-4.635551
645,6.449999999999907,-0.02207446,-0.086834334,-0.00798827,-3.3507485,-2.3774874,-4.509407
646,6.459999999999907,-0.061893854,-0.085004956,0.023233064,-4.0472875,-3.4591773,-4.2255077
647,6.4699999999999065,-0.07402871,-0.083053626,0.06451596,-4.499175,-4.13907,-3.9869647
648,6.479999999999906,-0.058540005,-0.11903133,0.19769447,-5.21572,-5.336519,-3.4691038
649,6.489999999999906,0.015793605,-0.19988972,0.37044844,-5.649587,-6.26595,-2.8429668
650,6.499999999999906,0.112567544,-0.27672347,0.5371045,-5.6862392,-6.583753,-2.2374468
651,6.509999999999906,0.18482786,-0.31343293,0.646928,-5.4255524,-6.383847,-1.8487836
652,6.519999999999905,0.2157443,-0.4288055,0.64375705,-4.9473977,-5.6602774,-1.5980235
653,6.529999999999905,-0.040124293,-1.2525121,-0.69510156,-5.3798904,-0.53985214,-1.389413
654,6.539999999999905,0.34636167,-1.4839281,0.39099842,-4.4238863,13.622448,-3.0552425
655,6.549999999999905,0.097444706,-2.0768285,0.18873052,-4.4238863,13.622448,-3.0552425
656,6.559999999999905,0.097444706,-2.0768285,0.18873052,0.7481572,15.021634,-3.4455855
657,6.569999999999904,-0.29227313,-2.1564674,-0.18799877,5.5434494,10.781924,-2.8351784
658,6.579999999999904,-1.068294,-1.2425725,-1.8233992,8.135809,-1.8269452,0.61941737
659,6.589999999999904,-1.068294,-1.2425725,-1.8233992,8.135809,-1.8269452,0.61941737
660,6.599999999999904,-0.74797046,-0.74028707,-0.25044146,5.35851,-1.7698293,3.0764701
661,6.6099999999999035,-0.74797046,-0.74028707,-0.25044146,5.35851,-1.7698293,3.0764701
662,6.619999999999903,-0.74797046,-0.74028707,-0.25044146,5.35851,-1.7698293,3.0764701
663,6.629999999999903,-0.74797046,-0.74028707,-0.25044146,5.35851,-1.7698293,3.0764701
664,6.639999999999903,-0.74797046,-0.74028707,-0.25044146,5.35851,-1.7698293,3.0764701
665,6.649999999999903,-0.59973013,-0.6667462,0.045002624,4.6857944,2.468201,7.3635225
666,6.659999999999902,-0.115799434,-0.9487749,0.07573613,4.018577,3.0112603,7.6446733
667,6.669999999999902,0.12823918,-0.9065163,0.016769271,2.7809641,2.8015807,7.364897
668,6.679999999999902,0.2836141,-0.813584,-0.02426971,1.6154331,1.8640553,6.58696
669,6.689999999999902,0.36246017,-0.59729093,-0.04414892,0.13881913,-0.14676037,5.149747
670,6.699999999999902,0.36246017,-0.59729093,-0.04414892,0.13881913,-0.14676037,5.149747
671,6.709999999999901,0.36246017,-0.59729093,-0.04414892,0.13881913,-0.14676037,5.149747
672,6.719999999999901,0.28782168,-0.22306179,0.08256579,0.13881913,-0.14676037,5.149747
673,6.729999999999901,0.08293167,0.01683025,0.056100838,-1.0881038,-2.7834074,2.2350032
674,6.739999999999901,0.08293167,0.01683025,0.056100838,-0.8953757,-2.9765937,2.0169244
675,6.7499999999999005,0.063540295,0.03664848,0.032745812,-0.7787005,-2.9552133,1.9428569
676,6.7599999999999,0.063540295,0.03664848,0.032745812,-0.7787005,-2.9552133,1.9428569
677,6.7699999999999,0.063540295,0.03664848,0.032745812,-0.7787005,-2.9552133,1.9428569
678,6.7799999999999,0.06085721,0.03164819,0.013781292,-0.68462723,-2.8936687,1.8955148
679,6.7899999999999,0.15848486,-0.40148684,0.008415125,-0.7108944,-3.0066788,0.048563786
680,6.7999999999998995,0.15848486,-0.40148684,0.008415125,-0.7108944,-3.0066788,0.048563786
681,6.809999999999899,0.15848486,-0.40148684,0.008415125,-0.86437434,-2.968805,-3.2594242
682,6.819999999999899,0.15848486,-0.40148684,0.008415125,-0.86437434,-2.968805,-3.2594242
683,6.829999999999899,-3.3662941,-4.9047985,0.21117085,2.0065396,-10.0455265,-2.9210048
684,6.839999999999899,-3.966451,-5.9665065,-0.08098034,3.491553,-9.231548,0.33551773
685,6.849999999999898,-3.966451,-5.9665065,-0.08098034,3.3469307,-4.195728,1.4834863
686,6.859999999999898,-1.4147776,-3.9499257,-1.638632,0.9277516,6.0327525,1.0468704
687,6.869999999999898,-1.0524395,-2.9174263,-1.1886669,-0.12583824,8.330828,0.3726278
688,6.879999999999898,-0.8562694,-1.937491,-0.6570505,-0.26083946,6.476393,-0.09407325
689,6.8899999999998975,-0.7965709,-1.5385044,-0.42965922,-0.14049901,3.5440874,-0.06047566
690,6.899999999999897,-0.71711504,-1.2953194,-0.42648828,-0.24007004,2.1203132,-0.04184427
691,6.909999999999897,-0.5771678,-1.0203035,-0.64680606,-0.5332854,1.2889256,-0.029932396
692,6.919999999999897,-0.13866661,-0.4873455,-1.0962834,-1.0877982,1.3458889,-0.057421334
693,6.929999999999897,-0.13866661,-0.4873455,-1.0962834,-2.143068,2.3521366,-0.23090707
694,6.9399999999998965,-0.07616298,-0.43691576,-0.98761857,-2.7375927,3.2061262,-0.4289801
695,6.949999999999896,0.11897036,-0.27154022,-0.112994395,-3.715435,4.6265407,-1.4013249
696,6.959999999999896,0.11897036,-0.27154022,-0.112994395,-3.715435,4.6265407,-1.4013249
697,6.969999999999896,0.16141187,-0.105920814,0.22653762,-3.4423783,4.693583,-2.510809
698,6.979999999999896,0.16141187,-0.08354146,0.2139759,-3.2667546,4.683351,-2.7774515
699,6.989999999999895,0.10531103,-0.09811548,0.17519315,-3.0051515,4.2681155,-3.1986432
700,6.999999999999895,0.023111105,-0.1797666,0.2596493,-2.8487701,2.9162707,-3.4391713
701,7.009999999999895,-0.0011586042,-0.20848778,0.3153233,-2.7907379,2.2574525,-3.4961345
702,7.019999999999895,0.024818521,-0.29574898,0.5486296,-2.4352143,-0.37094793,-3.6555703
703,7.0299999999998946,0.025428312,-0.30824968,0.5980227,-2.2021692,-1.9564487,-3.720933
704,7.039999999999894,0.0018903542,-0.32233587,0.6710147,-1.7621936,-5.180901,-3.7317758
705,7.049999999999894,-0.07445556,-0.29983455,0.688028,-1.5734361,-7.0238814,-3.6264014
706,7.059999999999894,-0.13397123,-0.26306412,0.71620035,-1.4937183,-8.184983,-3.3910656
707,7.069999999999894,-0.13372731,-0.25531977,0.6922355,-1.5467108,-8.610603,-2.9921706
708,7.0799999999998935,-0.8323047,-1.2567197,-1.5226499,-2.0583105,-7.2778487,-2.5211935
709,7.089999999999893,-0.8323047,-1.2567197,-1.5226499,-5.552918,0.47219884,-1.3970488
710,7.099999999999893,-0.21098791,-1.2778184,0.23916028,-7.3207617,5.6770763,-1.0699304
711,7.109999999999893,0.018476687,-1.5302722,0.3995355,-7.1006975,6.7972503,-1.398576
712,7.119999999999893,0.008110229,-1.6218629,0.1261659,-6.2366285,7.347487,-1.9839376
713,7.129999999999892,-0.35880142,-2.016886,-0.8882226,0.8034405,-1.7150042,-1.2635747
714,7.139999999999892,-0.67814934,-1.4936237,-0.35203275,3.815617,-4.618905,-0.16829337
715,7.149999999999892,-0.67814934,-1.4936237,-0.35203275,3.815617,-4.618905,-0.16829337
716,7.159999999999892,-0.70644367,-1.0864048,-0.050307814,4.6641088,-3.9362628,0.46303585
717,7.169999999999892,-0.6577823,-0.711383,0.22915971,5.2343516,-2.3295345,1.5842791
718,7.179999999999891,-0.5234452,-0.4867357,0.26184455,5.5885005,-1.6377298,2.3434317
719,7.189999999999891,-0.43886706,-0.48454046,0.18421806,5.7545033,-1.0132728,2.8619037
720,7.199999999999891,-0.40849942,-0.5218597,0.18842563,5.8329997,-0.44837508,3.1523702
721,7.209999999999891,-0.3731315,-0.5397266,0.17433943,5.918368,0.32528573,3.455512
722,7.2199999999998905,-0.31105474,-0.5388729,0.15354554,5.9107323,0.7672467,3.5662313
723,7.22999999999989,-0.31105474,-0.5388729,0.15354554,5.9107323,0.7672467,3.5662313
724,7.23999999999989,-0.31105474,-0.5388729,0.15354554,5.9107323,0.7672467,3.5662313
725,7.24999999999989,0.13793488,-0.3594112,-0.08043153,4.7436743,1.7701348,2.6140451
726,7.25999999999989,0.13793488,-0.3594112,-0.08043153,3.9069414,1.3862059,1.6633861
727,7.269999999999889,0.14122775,-0.26336902,-0.05683258,3.5051448,1.1583532,1.1369729
728,7.279999999999889,0.09140777,-0.13439809,-0.02042802,3.0364585,0.9370673,0.50976706
729,7.289999999999889,0.09140777,-0.13439809,-0.02042802,3.0364585,0.9370673,0.50976706
730,7.299999999999889,0.079211935,-0.07207738,-0.011525063,2.7511845,0.7089091,0.16646078
731,7.309999999999889,0.079211935,-0.07207738,-0.011525063,2.7511845,0.7089091,0.16646078
732,7.319999999999888,0.079211935,-0.07207738,-0.011525063,2.7511845,0.7089091,0.16646078
733,7.329999999999888,-0.36166742,-0.23342825,-2.0148737,1.7227927,-1.4092661,0.111177474
734,7.339999999999888,0.06280854,-0.007073583,-0.06756492,2.6212227,-0.12339478,0.020922136
735,7.349999999999888,-0.016220458,-0.2025728,-0.2409287,-2.4885123,-5.632025,1.0024298
736,7.3599999999998875,-0.016220458,-0.2025728,-0.2409287,-2.4885123,-5.632025,1.0024298
737,7.369999999999887,-0.016220458,-0.2025728,-0.2409287,-2.4885123,-5.632025,1.0024298
738,7.379999999999887,-0.016220458,-0.2025728,-0.2409287,-2.4885123,-5.632025,1.0024298
739,7.389999999999887,-0.29410252,-0.7701059,0.059576645,-3.2879822,-4.315152,-0.1684461
740,7.399999999999887,-2.5680766,-3.7582679,0.2786748,-3.72246,-2.0233383,0.13194689
741,7.4099999999998865,-3.2926311,-5.043648,0.2365382,-1.8623754,-6.1732516,1.2617421
742,7.419999999999886,-2.7096703,-5.189693,0.6735149,1.5749633,-9.291261,2.610227
743,7.429999999999886,-2.7096703,-5.189693,0.6735149,1.5749633,-9.291261,2.610227
744,7.439999999999886,-2.7096703,-5.189693,0.6735149,1.5749633,-9.291261,2.610227
745,7.449999999999886,-2.0942686,-4.9538255,0.40532854,1.5749633,-9.291261,2.610227
746,7.459999999999885,-0.35020337,-2.1001227,-1.0230476,1.2246321,6.028171,0.7808385
747,7.469999999999885,-0.34721538,-1.6727196,-0.73687226,0.81290895,7.7908225,0.15439619
748,7.479999999999885,-0.29861498,-0.9994486,-0.6669292,0.9289733,7.444309,-0.17623462
749,7.489999999999885,-0.15110639,-0.7319939,-0.778643,1.1198688,4.7607784,-0.5908594
750,7.4999999999998845,-0.15110639,-0.7319939,-0.778643,1.1198688,4.7607784,-0.5908594
751,7.509999999999884,0.10872585,-0.3009322,-1.0395728,-0.26526824,4.9522843,-1.317331
752,7.519999999999884,0.124885336,-0.20440216,-0.90615046,-1.1643091,5.4208183,-1.7298176
753,7.529999999999884,0.17397358,-0.16757075,-0.4665516,-2.0851886,5.7900863,-2.2449298
754,7.539999999999884,0.18860857,-0.17458336,-0.118360564,-2.4405594,5.806732,-2.6642888
755,7.5499999999998835,0.18860857,-0.17458336,-0.118360564,-2.5011878,5.2954383,-3.1532865
756,7.559999999999883,0.19946286,-0.117689796,0.27818695,-2.5011878,5.2954383,-3.1532865
757,7.569999999999883,0.18202282,-0.10957957,0.26477155,-1.9614882,3.5874588,-3.95016
758,7.579999999999883,0.14994776,-0.14055698,0.37593657,-1.694082,2.4341452,-4.192063
759,7.589999999999883,0.0983594,-0.17824212,0.43728164,-1.4083499,0.76342887,-4.3681445
760,7.599999999999882,0.047990605,-0.19696271,0.46380752,-1.1989758,-1.2114985,-4.477337
761,7.609999999999882,0.025306353,-0.2145247,0.49984625,-1.0386237,-3.8727329,-4.518112
762,7.619999999999882,0.014269125,-0.20976834,0.48216227,-1.0073168,-5.4287596,-4.4845147
763,7.629999999999882,-0.0866514,-0.22318375,0.44575772,-1.0823005,-8.120232,-4.272086
764,7.6399999999998816,-0.0866514,-0.22318375,0.44575772,-1.3330606,-9.381058,-3.9541306
765,7.649999999999881,-0.24220926,-0.4269761,-0.024086772,-2.0497584,-8.881981,-3.541033
766,7.659999999999881,-0.2125734,-0.8586477,-0.49795586,-3.7114644,-5.913328,-2.9202414
767,7.669999999999881,-0.2037314,-1.15647,-0.51905465,-4.829348,-3.1735976,-2.6314547
768,7.679999999999881,0.16696097,-1.5442364,0.922127,-5.7354136,6.221357,-2.8495336
769,7.6899999999998805,0.16696097,-1.5442364,0.922127,-5.7354136,6.221357,-2.8495336
770,7.69999999999988,-0.112445585,-1.8111423,0.15409435,-3.3573153,9.341962,-3.4345899
771,7.70999999999988,-0.112445585,-1.8111423,0.15409435,-2.272877,10.958922,-3.3108897
772,7.71999999999988,-0.6841862,-2.0054219,-0.63759816,3.5532503,3.8223367,-0.92164296
773,7.72999999999988,-0.9882284,-1.7332109,-0.2991028,5.2603135,-0.5983425,0.97784257
774,7.739999999999879,-0.9120045,-1.5186251,-0.10262794,5.916383,-2.6250408,2.6456573
775,7.749999999999879,-0.7505926,-1.2903802,-0.05067369,5.916383,-2.6250408,2.6456573
776,7.759999999999879,-0.62418276,-1.1881791,-0.030245667,5.916383,-2.6250408,2.6456573
777,7.769999999999879,-0.62418276,-1.1881791,-0.030245667,5.916383,-2.6250408,2.6456573
778,7.779999999999879,-0.62418276,-1.1881791,-0.030245667,6.2351017,-2.7753136,5.1010303
779,7.789999999999878,-0.3111767,-1.0249379,0.11073817,6.116899,-1.553583,6.297868
780,7.799999999999878,-0.037868064,-0.87681943,0.03664848,5.6692877,0.6214027,7.3149586
781,7.809999999999878,-0.037868064,-0.87681943,0.03664848,5.6692877,0.6214027,7.3149586
782,7.819999999999878,0.22586684,-0.6260121,-0.06860156,3.5428658,1.5609134,6.245639
783,7.8299999999998775,0.30690816,-0.51692045,-0.096895896,2.768594,1.2389874,5.670662
784,7.839999999999877,0.30690816,-0.51692045,-0.096895896,2.768594,1.2389874,5.670662
785,7.849999999999877,0.30690816,-0.51692045,-0.096895896,2.768594,1.2389874,5.670662
786,7.859999999999877,0.23257454,-0.10287185,-0.02134271,0.9976957,-0.70570207,3.3492215
787,7.869999999999877,0.15708233,-0.0010366458,-0.039941356,0.8579602,-1.0477866,2.9582677
788,7.879999999999876,0.11543357,0.015610667,-0.07854117,0.8355109,-1.6465873,2.5605943
789,7.889999999999876,0.11543357,0.015610667,-0.07854117,0.8355109,-1.6465873,2.5605943
790,7.899999999999876,0.1009815,0.022318374,-0.09921311,0.83062404,-2.0117319,2.430022
791,7.909999999999876,0.0951275,0.020793896,-0.09976192,0.8240572,-2.224313,2.357329
792,7.919999999999876,-0.26385686,-0.39910865,-2.9430985,-0.1656972,-1.0151054,2.237294
793,7.929999999999875,-0.044270877,-0.18610841,-0.6682707,-3.907094,4.1635046,2.1997259
794,7.939999999999875,-0.30007848,-0.6249755,-0.8564524,-3.4797938,0.3678936,1.5635096
795,7.949999999999875,-0.30007848,-0.6249755,-0.8564524,-3.4797938,0.3678936,1.5635096
796,7.959999999999875,-0.06360127,-0.58546096,-0.09829842,-0.464563,-7.7262235,0.14660765
797,7.9699999999998745,-0.45039213,-1.6740612,0.38294917,-0.46639562,-7.687739,-1.0476339
798,7.979999999999874,-1.5889952,-3.1718924,0.54051936,-0.46639562,-7.687739,-1.0476339
799,7.989999999999874,-1.5889952,-3.1718924,0.54051936,-1.9303342,-0.8333729,-1.642922
800,7.999999999999874,-2.8694966,-4.6010003,0.80742514,-1.9303342,-0.8333729,-1.642922
801,8.009999999999874,-2.8694966,-4.6010003,0.80742514,-1.9303342,-0.8333729,-1.642922
802,8.019999999999873,-2.8694966,-4.6010003,0.80742514,-1.9303342,-0.8333729,-1.642922
803,8.029999999999873,-1.8958422,-4.3270817,0.17153439,3.0173688,1.0439687,0.2817616
804,8.039999999999873,-0.8714533,-2.046156,-1.2803795,3.046843,2.4399486,-0.08353582
805,8.049999999999873,-0.8714533,-2.046156,-1.2803795,3.046843,2.4399486,-0.08353582
806,8.059999999999873,-0.8714533,-2.046156,-1.2803795,3.046843,2.4399486,-0.08353582
807,8.069999999999872,-0.8714533,-2.046156,-1.2803795,3.046843,2.4399486,-0.08353582
808,8.079999999999872,-0.8714533,-2.046156,-1.2803795,3.046843,2.4399486,-0.08353582
809,8.089999999999872,-0.21147576,-0.857733,-1.5476513,1.1268936,8.055938,-0.8723156
810,8.099999999999872,0.0074394583,-0.36044785,-0.415634,-1.6016886,4.4894013,-2.3747387
811,8.109999999999872,0.07817529,-0.20940247,-0.12098267,-2.0792327,3.7669005,-2.7111726
812,8.119999999999871,0.07817529,-0.20940247,-0.12098267,-2.0792327,3.7669005,-2.7111726
813,8.129999999999871,0.07817529,-0.20940247,-0.12098267,-2.0792327,3.7669005,-2.7111726
814,8.139999999999871,0.07817529,-0.20940247,-0.12098267,-2.0792327,3.7669005,-2.7111726
815,8.14999999999987,0.15519199,-0.05390558,0.18537667,-2.1500928,0.93126404,-4.0591993
816,8.15999999999987,0.15519199,-0.05390558,0.18537667,-2.1500928,0.93126404,-4.0591993
817,8.16999999999987,0.050063897,-0.107628234,0.19958481,-2.2348504,0.03481932,-4.1048617
818,8.17999999999987,0.013598354,-0.15037462,0.31623796,-2.4799602,-2.32984,-4.1248674
819,8.18999999999987,0.015732625,-0.16049717,0.3514839,-2.5961773,-3.6572502,-4.0883684
820,8.19999999999987,-0.024086772,-0.1855596,0.64912325,-2.826321,-7.5748816,-3.5978436
821,8.20999999999987,-0.030062728,-0.1589727,0.7471777,-2.890767,-8.530428,-3.2479706
822,8.21999999999987,0.05195425,-0.19549921,0.9029186,-3.0271428,-8.792794,-2.627637
823,8.229999999999869,0.05195425,-0.19549921,0.9029186,-3.0083587,-7.9045963,-2.2078197
824,8.239999999999869,-1.0279258,-1.1370785,-0.78583854,-3.0392072,-5.9573107,-1.7817413
825,8.249999999999869,-1.0279258,-1.1370785,-0.78583854,-3.0392072,-5.9573107,-1.7817413
826,8.259999999999868,-0.29690757,-0.43972078,0.046710044,-3.0392072,-5.9573107,-1.7817413
827,8.269999999999868,0.21818347,-1.123968,0.86529446,-4.094324,9.681603,-1.041678
828,8.279999999999868,0.21818347,-1.123968,0.86529446,-4.094324,9.681603,-1.041678
829,8.289999999999868,-0.018842563,-1.7528461,-1.1200044,-3.015689,10.649366,-1.5783231
830,8.299999999999867,-0.8800513,-1.9340763,-1.1200653,3.03936,4.568203,-1.1566733
831,8.309999999999867,-1.097747,-1.4831352,-0.8144378,6.614449,-2.4239132,1.1786644
832,8.319999999999867,-1.097747,-1.4831352,-0.8144378,6.1752367,-2.1998785,2.6442828
833,8.329999999999867,-0.94298184,-1.1383591,-0.15586275,5.7952785,-1.7829629,3.8096611
834,8.339999999999867,-0.8259628,-1.0845145,0.0069516255,5.5309267,-1.3313808,4.837442
835,8.349999999999866,-0.69815046,-1.074209,0.08750511,5.3076553,-0.8188649,5.689141
836,8.359999999999866,-0.5363728,-1.0817704,0.14866722,4.9852715,-0.10323623,6.4536386
837,8.369999999999866,-0.4563681,-1.0950639,0.09896919,4.703815,0.3129157,6.711882
838,8.379999999999866,-0.23501371,-1.097808,0.04762473,3.9782598,0.83199847,6.7002754
839,8.389999999999866,-0.0029879792,-0.8716362,-0.016708292,2.769663,0.98639464,5.798944
840,8.399999999999865,0.17129049,-0.7490681,-0.039819397,2.2249238,0.8891144,5.0313916
841,8.409999999999865,0.29306588,-0.53490925,-0.06317442,1.3287846,0.27305678,3.458719
842,8.419999999999865,0.27562585,-0.39788908,-0.01097625,0.9121745,-0.13988814,2.563496
843,8.429999999999865,0.22940363,-0.17287594,0.043356188,0.5154176,-0.5531385,1.4138476
844,8.439999999999864,0.16110696,-0.08165111,0.046892982,0.43783766,-0.6458373,0.990518
845,8.449999999999864,0.16110696,-0.08165111,0.046892982,0.43783766,-0.6458373,0.990518
846,8.459999999999864,0.16110696,-0.08165111,0.046892982,0.43783766,-0.6458373,0.990518
847,8.469999999999864,0.07482144,0.032318957,0.029513916,0.4970916,-0.9989174,0.5384777
848,8.479999999999864,0.070187025,0.05408852,-0.0064028124,0.63270366,-1.3411547,0.42088616
849,8.489999999999863,0.0617719,0.060247418,-0.046527103,0.7076874,-1.6618589,0.36270124
850,8.499999999999863,0.072321296,0.04463675,-0.07445556,0.76923203,-1.947133,0.27488935
851,8.509999999999863,0.072321296,0.04463675,-0.07445556,0.76923203,-1.947133,0.27488935
852,8.519999999999863,0.072321296,0.04463675,-0.07445556,0.62888575,-3.3860261,0.20173825
853,8.529999999999863,0.07823627,-0.3514839,-0.18891345,-4.496121,-8.634886,1.1513283
854,8.539999999999862,0.07823627,-0.3514839,-0.18891345,-4.496121,-8.634886,1.1513283
855,8.549999999999862,-0.3030055,-1.1067109,0.56942344,-3.382208,-6.162103,-0.26725355
856,8.559999999999862,-0.78467995,-1.7316253,0.70924866,-2.806162,-4.591416,-1.1093313
857,8.569999999999862,-2.1650653,-3.6119182,1.0474391,-1.3651311,-2.1126773,-1.7136297
858,8.579999999999862,-2.9518795,-4.5408745,1.170861,1.1045971,0.036651913,-0.78694713
859,8.589999999999861,-2.9979799,-4.9615088,0.80571777,2.4636195,2.0627391,0.6262896
860,8.599999999999861,-2.4438622,-4.7419233,0.43770844,2.8079948,3.8777726,1.587486
861,8.60999999999986,-2.4438622,-4.7419233,0.43770844,2.8079948,3.8777726,1.587486
862,8.61999999999986,-1.2408041,-3.0778625,0.16909523,2.7977629,4.4209843,0.9430232
863,8.62999999999986,-0.93615216,-2.2123241,0.04549046,3.803247,2.0360138,0.75732017
864,8.63999999999986,-0.16909523,-0.84157354,-2.4991093,4.9689307,0.44135013,0.4250095
865,8.64999999999986,-0.16909523,-0.84157354,-2.4991093,4.9689307,0.44135013,0.4250095
866,8.65999999999986,0.27763817,-0.38538834,-2.0032265,0.81413066,9.716423,-0.8848383
867,8.66999999999986,0.27763817,-0.38538834,-2.0032265,0.060322944,9.271407,-1.4773777
868,8.67999999999986,0.25946635,-0.31788442,-1.4340471,0.060322944,9.271407,-1.4773777
869,8.68999999999986,0.25330746,-0.3298363,-0.7541904,-0.49602258,7.272045,-2.368172
870,8.699999999999859,0.25330746,-0.3298363,-0.7541904,-0.49602258,7.272045,-2.368172
871,8.709999999999859,0.25330746,-0.3298363,-0.7541904,-0.49602258,7.272045,-2.368172
872,8.719999999999859,0.25330746,-0.3298363,-0.7541904,-0.49602258,7.272045,-2.368172
873,8.729999999999858,0.25330746,-0.3298363,-0.7541904,-1.7249308,0.8023715,-4.736191
874,8.739999999999858,0.20690231,-0.32215294,-0.40288937,-0.73975784,5.494733,-2.9717066
875,8.749999999999858,0.24806325,-0.19531627,0.2923341,-1.6374242,-0.29245174,-5.0686545
876,8.759999999999858,0.24806325,-0.19531627,0.2923341,-1.6374242,-0.29245174,-5.0686545
877,8.769999999999857,0.24806325,-0.19531627,0.2923341,-1.6374242,-0.29245174,-5.0686545
878,8.779999999999857,0.24806325,-0.19531627,0.2923341,-1.6374242,-0.29245174,-5.0686545
879,8.789999999999857,-0.26416174,-0.27093044,0.03469715,-2.2957842,-5.0814824,-4.358218
880,8.799999999999857,-0.357094,-0.41850004,-0.042380523,-3.0234776,-4.606535,-3.712839
881,8.809999999999857,-0.357094,-0.41850004,-0.042380523,-4.163352,-3.304781,-2.5986207
882,8.819999999999856,-0.357094,-0.41850004,-0.042380523,-4.163352,-3.304781,-2.5986207
883,8.829999999999856,-0.357094,-0.41850004,-0.042380523,-4.163352,-3.304781,-2.5986207
884,8.839999999999856,-0.011647021,-0.8701117,0.0918956,-5.1289773,-1.055117,-1.7232509
885,8.849999999999856,0.5752165,-1.8595597,0.5918638,-4.990922,6.712798,-3.0327933
886,8.859999999999856,0.80510795,-2.526245,0.020549979,-3.4723108,9.539883,-4.352415
887,8.869999999999855,0.80510795,-2.526245,0.020549979,-3.4723108,9.539883,-4.352415
888,8.879999999999855,0.76632524,-3.0413358,-0.18940128,-2.1438315,11.290775,-4.9319735
889,8.889999999999855,-1.0119493,-2.194823,-1.6230215,6.1653104,2.7102563,-1.43141
890,8.899999999999855,-0.85376936,-1.3508716,-0.77175236,4.3542476,-0.59498274,1.3122913
891,8.909999999999854,-0.7379089,-1.0607326,-0.18592548,3.430161,-2.439185,2.7380507
892,8.919999999999854,-0.49240676,-0.7321159,0.27300373,3.1607695,-3.5569155,3.9753582
893,8.929999999999854,-0.49240676,-0.7321159,0.27300373,3.1607695,-3.5569155,3.9753582
894,8.939999999999854,-0.27288178,-0.45197758,0.13921544,3.4274123,-3.3912184,5.068807
895,8.949999999999854,-0.16482669,-0.3842907,0.066345334,3.487735,-2.8716774,5.3777523
896,8.959999999999853,-0.06933331,-0.35935023,0.054820273,3.4429893,-2.2602015,5.525429
897,8.969999999999853,0.07250423,-0.32056746,0.031892106,3.3272302,-1.8275561,5.497176
898,8.979999999999853,0.14397182,-0.30202982,0.037746105,3.202003,-1.5344934,5.365535
899,8.989999999999853,0.19842622,-0.27733323,0.038965687,3.044247,-1.3539828,5.0701814
900,8.999999999999853,0.31227434,-0.19958481,0.06299148,2.8677068,-1.3374895,4.6751046
901,9.009999999999852,0.31227434,-0.19958481,0.06299148,2.531273,-1.669342,3.7873645
902,9.019999999999852,0.2359284,-0.09799352,-0.020367041,2.3307564,-1.9530889,3.4521523
903,9.029999999999852,0.2359284,-0.09799352,-0.020367041,2.189799,-2.189952,3.156188
904,9.039999999999852,0.19568215,-0.055308107,-0.017440042,2.1033618,-2.3704627,2.8738155
905,9.049999999999851,0.13189794,-0.036770437,-0.03146525,2.1033618,-2.3704627,2.8738155
906,9.059999999999851,0.13189794,-0.036770437,-0.03146525,2.1033618,-2.3704627,2.8738155
907,9.069999999999851,0.13189794,-0.036770437,-0.03146525,2.1033618,-2.3704627,2.8738155
908,9.07999999999985,-0.72888404,-0.66497785,-4.0702376,-0.3315471,0.83001316,2.605493
909,9.08999999999985,0.017927876,-0.10982348,-0.09695688,-3.7841575,6.0984206,2.7235427
910,9.09999999999985,0.04469773,-0.08823685,0.038965687,-3.8847976,5.7935987,2.5308146
911,9.10999999999985,0.071162686,-0.1454963,0.05945469,-4.0071235,4.9861875,1.8923078
912,9.11999999999985,0.0395145,-0.24605095,0.21922012,-3.2097914,2.8312078,1.4046847
913,9.12999999999985,-0.045734376,-0.45966098,0.18836464,-0.8571966,-2.5105035,0.9618073
914,9.13999999999985,-0.34373957,-1.2083632,-0.030062728,0.5580254,-6.541603,0.29978213
915,9.14999999999985,-0.53039676,-1.8663285,0.0131715005,0.74113226,-7.4728675,-0.44012842
916,9.15999999999985,-2.1373808,-4.1472545,0.18738899,-0.41355577,-6.5736737,-1.4921911
917,9.169999999999849,-2.9403546,-5.0979805,0.38398582,-1.5696182,-4.034612,-1.321607
918,9.179999999999849,-3.4237971,-6.22329,0.7019312,-0.8022188,-0.5636759,0.7351763
919,9.189999999999849,-3.4237971,-6.22329,0.7019312,-0.8022188,-0.5636759,0.7351763
920,9.199999999999848,-2.1093304,-4.4898963,0.26885715,-0.8022188,-0.5636759,0.7351763
921,9.209999999999848,-2.1093304,-4.4898963,0.26885715,-0.8022188,-0.5636759,0.7351763
922,9.219999999999848,-0.52643317,-1.1118941,-1.7840065,1.1027645,3.769344,0.060170226
923,9.229999999999848,-0.3233725,-0.8388904,-1.2342184,-0.113926366,6.296341,-0.2527455
924,9.239999999999847,-0.24166043,-0.6940039,-0.9071871,-0.5364924,6.650948,-0.5308419
925,9.249999999999847,-0.13269067,-0.49161404,-0.6137553,-0.8530733,5.9107323,-1.1206323
926,9.259999999999847,-0.045124583,-0.30648127,-0.51039565,-0.8863655,5.071403,-1.4526376
927,9.269999999999847,0.0043295207,-0.14330104,-0.48021096,-0.892016,4.1761804,-1.8220583
928,9.279999999999847,0.04396598,-0.05945469,-0.39654753,-0.9837985,3.8699841,-2.066099
929,9.289999999999846,0.095920235,-0.008293167,-0.20903657,-1.1837041,3.790266,-2.3472497
930,9.299999999999846,0.13848369,0.0014635,0.016403396,-1.2841915,3.8270707,-2.5841126
931,9.309999999999846,0.13415417,0.021708583,0.100432694,-1.2592987,3.67298,-2.8793132
932,9.319999999999846,0.11427496,0.026038107,0.13476396,-1.2188289,3.3396003,-3.0783026
933,9.329999999999846,0.0898833,0.009390792,0.14836231,-1.2014192,2.798832,-3.2461379
934,9.339999999999845,0.033294626,-0.024513626,0.16866837,-1.258077,1.6873626,-3.4155004
935,9.349999999999845,0.033294626,-0.024513626,0.16866837,-1.4170547,0.018784106,-3.5686748
936,9.359999999999845,-0.0336605,-0.046588086,0.2506244,-1.7308867,-2.138792,-3.6438112
937,9.369999999999845,-0.025367333,-0.07165052,0.31629896,-1.9793562,-3.9309177,-3.6209037
938,9.379999999999844,-0.021220751,-0.07689473,0.3427639,-2.2296581,-5.558263,-3.5117116
939,9.389999999999844,-0.021220751,-0.07689473,0.3427639,-2.5889995,-7.151705,-3.2603405
940,9.399999999999844,-0.021220751,-0.07689473,0.3427639,-2.5889995,-7.151705,-3.2603405
941,9.409999999999844,-0.021220751,-0.07689473,0.3427639,-2.5889995,-7.151705,-3.2603405
942,9.419999999999844,0.040124293,-0.23263553,0.59088814,-3.3232596,-6.9313354,-2.2149973
943,9.429999999999843,-0.35837457,-0.7138221,-0.6274147,-5.6138515,2.8189905,-1.3875804
944,9.439999999999843,-0.4173414,-1.2772697,-0.834073,-5.6138515,2.8189905,-1.3875804
945,9.449999999999843,-0.4173414,-1.2772697,-0.834073,-5.6138515,2.8189905,-1.3875804
946,9.459999999999843,-0.4173414,-1.2772697,-0.834073,-5.6138515,2.8189905,-1.3875804
947,9.469999999999843,-0.4173414,-1.2772697,-0.834073,3.7966802,6.3562055,-2.7166705
948,9.479999999999842,-0.96676373,-2.6559477,-1.132505,6.627277,0.97097033,-0.84879726
949,9.489999999999842,-1.1498841,-2.4742906,-1.2598907,6.6301785,-0.29016098,0.5131268
950,9.499999999999842,-0.96316594,-2.1657362,-1.0030463,5.839261,-0.80481493,2.361147
951,9.509999999999842,-0.717054,-1.7348573,-0.41575596,4.498259,-0.81107634,4.5791984
952,9.519999999999841,-0.717054,-1.7348573,-0.41575596,4.498259,-0.81107634,4.5791984
953,9.529999999999841,-0.58003384,-1.4464258,-0.09823744,4.498259,-0.81107634,4.5791984
954,9.539999999999841,-0.4030723,-1.1048815,-0.009085896,2.6435194,-0.23335053,6.780757
955,9.54999999999984,-0.15189911,-0.769862,0.023476979,2.2799017,-0.089186326,6.750977
956,9.55999999999984,0.137569,-0.45417285,0.03561183,1.3356569,0.034055736,5.9406643
957,9.56999999999984,0.137569,-0.45417285,0.03561183,1.3356569,0.034055736,5.9406643
958,9.57999999999984,0.2637349,-0.15263085,0.06097917,0.8698721,-0.30970868,4.983744
959,9.58999999999984,0.25775895,-0.06488183,0.072016396,0.6478226,-0.70509124,4.30492
960,9.59999999999984,0.24794129,-0.00512225,0.18958424,0.5439755,-1.3888022,3.063031
961,9.60999999999984,0.22818404,0.031160356,0.14360595,0.77824235,-1.3698653,2.5712845
962,9.61999999999984,0.17458336,0.043356188,0.08933448,0.77824235,-1.3698653,2.5712845
963,9.62999999999984,0.14482552,0.037136313,0.04085604,1.0943651,-1.2918273,2.0470095
964,9.639999999999839,0.1323248,0.039941356,0.021708583,1.1688906,-1.340391,1.9338466
965,9.649999999999839,0.12726352,0.06073525,-0.019513333,1.2964088,-1.5338826,1.7458528
966,9.659999999999838,0.12726352,0.06073525,-0.019513333,1.3443617,-1.670411,1.6867516
967,9.669999999999838,0.12726352,0.06073525,-0.019513333,1.3443617,-1.670411,1.6867516
968,9.679999999999838,0.12726352,0.06073525,-0.019513333,1.3443617,-1.670411,1.6867516
969,9.689999999999838,0.12726352,0.06073525,-0.019513333,1.3443617,-1.670411,1.6867516
970,9.699999999999838,-0.2300744,-0.09061504,-1.5060635,1.3799446,-2.8842003,1.1806498
971,9.709999999999837,-0.2555027,-0.19366984,-1.5391752,-2.7563767,1.176221,1.2173017
972,9.719999999999837,0.09134679,-0.055308107,-0.26068595,-3.6596937,1.4054482,0.8167268
973,9.729999999999837,0.14738666,-0.093359105,-0.09006623,-3.758043,0.32055154,-0.20586158
974,9.739999999999837,-0.01396423,-0.68211293,-0.08055348,-2.6352727,-4.9032626,-2.2606595
975,9.749999999999837,-0.5250916,-1.147384,0.1817789,-1.9914207,-6.8262663,-2.8052459
976,9.759999999999836,-0.5250916,-1.147384,0.1817789,-1.9914207,-6.8262663,-2.8052459
977,9.769999999999836,-4.126582,-5.1048713,0.8161452,-0.4841107,-5.6094227,-1.1737776
978,9.779999999999836,-4.413855,-5.9466276,0.7446776,-0.4841107,-5.6094227,-1.1737776
979,9.789999999999836,-3.7727203,-6.1366386,0.7456533,0.15653422,0.08231409,3.2942436
980,9.799999999999836,-3.7727203,-6.1366386,0.7456533,1.1840096,-0.6458373,2.6186266
981,9.809999999999835,-1.8693774,-3.4598968,0.17964463,3.5596645,-4.0088034,0.6962337
982,9.819999999999835,-1.0878685,-1.9753592,-1.8667552,4.5909576,-3.3727398,0.4981606
983,9.829999999999835,-0.44008666,-1.1845204,-2.5439289,3.6764925,6.1506495,0.49846604
984,9.839999999999835,-0.16476572,-0.94932365,-1.7819333,3.6764925,6.1506495,0.49846604
985,9.849999999999834,-0.054942228,-0.772789,-1.3609331,1.379181,10.781008,-0.6543894
986,9.859999999999834,-0.012256813,-0.48386967,-0.86700183,0.8228355,9.021411,-1.2379184
987,9.869999999999834,0.050002918,-0.1797666,-0.5431415,-0.12415836,5.673411,-2.0717494
988,9.879999999999834,0.06982114,-0.14293517,-0.49807784,-0.42638394,4.958393,-2.2530236
989,9.889999999999834,0.17025384,-0.052381106,-0.2579419,-1.1556044,3.8997638,-2.6826148
990,9.899999999999833,0.20501198,-0.025428312,0.008598062,-1.7035505,3.2168164,-3.1726813
991,9.909999999999833,0.23946518,0.0038416875,0.10409144,-1.8338175,2.7982209,-3.3932037
992,9.919999999999833,0.23946518,0.0038416875,0.10409144,-1.9795089,1.6904168,-4.046524
993,9.929999999999833,0.26477155,-0.017257104,0.17287594,-2.016619,0.9964739,-4.3460007
994,9.939999999999833,0.11293342,-0.057503358,0.21812248,-2.016619,0.9964739,-4.3460007
995,9.949999999999832,0.00073175,-0.07549221,0.3041031,-2.5071437,-1.9924897,-4.5252895
996,9.959999999999832,0.0020732917,-0.0910419,0.3100181,-2.5071437,-1.9924897,-4.5252895
997,9.969999999999832,0.0020732917,-0.0910419,0.3100181,-2.642145,-2.6279423,-4.4672575
998,9.979999999999832,-0.018110814,-0.0831146,0.38038805,-3.1560352,-4.903415,-4.12105
999,9.989999999999831,-0.008171208,-0.07390675,0.50118774,-3.5619552,-6.1932573,-3.816075
1000,9.999999999999831,0.037624147,-0.11378712,0.72876203,-4.2604795,-8.08419,-2.7667613
