id,timestamp,acc_x,acc_y,acc_z,gyro_x,gyro_y,gyro_z
0,0,0.002500146,0.058113147,-0.22854991,0.36285394,-0.72143185,-1.0595458
1,0.01,-0.01750102,0.07860215,-0.48143053,-0.25778514,-1.883603,-1.0636691
2,0.02,-0.035124,0.06683317,-0.31916496,-0.799928,-2.7780623,-1.0303769
3,0.03,-0.019330395,0.057503358,-0.08890763,-1.1189524,-3.2328515,-0.9815077
4,0.04,-0.012500729,0.060125455,-0.037685126,-1.3411547,-3.3476942,-0.9482156
5,0.05,0.020001167,0.020793896,-0.04908823,-1.5745052,-3.2710307,-0.9610438
6,0.060000000000000005,0.020001167,0.020793896,-0.04908823,-2.4426973,-2.698192,-1.1253664
7,0.07,0.015122834,-0.0030489585,-0.03420931,-2.959184,-2.1143572,-1.1322387
8,0.08,-0.038538832,-0.058966853,0.13220283,-2.959184,-2.1143572,-1.1322387
9,0.09,-0.09988388,-0.13055639,0.23958716,-3.1528282,-1.5477798,-1.0135782
10,0.09999999999999999,-0.8611478,-0.62540233,0.5757653,-2.8397598,-0.27015516,-0.08460484
11,0.10999999999999999,-1.167873,-0.9440795,0.87919766,-2.6019804,0.33628133,0.3388775
12,0.11999999999999998,-2.3523934,-3.111889,0.9992657,-1.6678149,2.8725939,2.7407997
13,0.12999999999999998,-0.92298067,-5.3187246,-3.1989062,-2.1183279,1.0844386,3.7814085
14,0.13999999999999999,-0.92298067,-5.3187246,-3.1989062,-8.524625,-15.5573635,1.4446963
15,0.15,1.0491467,-6.1698112,-3.3835511,-7.6074104,-15.66121,0.7890852
16,0.16,-0.24123359,-2.557588,0.805047,-4.521472,-16.056288,1.0708468
17,0.17,0.05689356,-2.0365822,1.0043269,7.3768086,-9.897544,-0.31337386
18,0.18000000000000002,-0.120067984,-2.01963,-0.491736,10.684796,-0.7049385,-2.5824327
19,0.19000000000000003,0.12549512,-4.332326,-6.671609,10.684796,-0.7049385,-2.5824327
20,0.20000000000000004,-0.13147108,-4.019076,0.6325979,0.34574974,4.2404737,-4.810106
21,0.21000000000000005,-0.44240385,-4.1495714,0.2148906,0.24113905,7.951022,-5.1735706
22,0.22000000000000006,-0.44240385,-4.1495714,0.2148906,0.50854534,16.15815,-5.5188622
23,0.23000000000000007,-0.68211293,-3.2421405,-1.050732,0.19746219,15.866614,-4.9483137
24,0.24000000000000007,-0.19153556,-1.6644264,-0.0757971,-0.31871894,11.988536,-4.6002736
25,0.25000000000000006,-0.19153556,-1.6644264,-0.0757971,0.4251622,6.732957,-4.265672
26,0.26000000000000006,-0.16025324,-1.2744646,0.02841629,0.4251622,6.732957,-4.265672
27,0.2700000000000001,-0.13366634,-0.61308455,-0.0023781876,0.8187121,5.212971,-3.8055377
28,0.2800000000000001,-0.13366634,-0.61308455,-0.0023781876,0.8187121,5.212971,-3.8055377
29,0.2900000000000001,-0.14098383,-0.42014647,-0.01603752,0.8570439,4.942663,-3.5094209
30,0.3000000000000001,-0.14098383,-0.42014647,-0.01603752,0.8570439,4.942663,-3.5094209
31,0.3100000000000001,-0.12580003,-0.27776012,-0.01323248,0.8810204,4.7687197,-3.2125404
32,0.3200000000000001,-0.11518965,-0.1870231,-0.004024625,0.8810204,4.7687197,-3.2125404
33,0.3300000000000001,-0.086285524,-0.06250364,0.0030489585,1.0155635,4.5604143,-2.688418
34,0.34000000000000014,-0.086285524,-0.06250364,0.0030489585,1.0155635,4.5604143,-2.688418
35,0.35000000000000014,-0.086285524,-0.06250364,0.0030489585,1.0155635,4.5604143,-2.688418
36,0.36000000000000015,-0.052625023,-0.0190255,-0.023476979,1.5558738,3.9568796,-2.1380284
37,0.37000000000000016,-0.080919355,-0.0046344167,-0.031709168,1.6145169,3.5413384,-1.9683605
38,0.38000000000000017,-0.097871564,0.012256813,-0.050124876,1.602605,3.264311,-1.8842138
39,0.3900000000000002,-0.1510454,0.04744179,-0.07110171,1.541213,2.7075074,-1.7623463
40,0.4000000000000002,-0.23251356,0.09610317,-0.09006623,1.382388,1.8901697,-1.6082555
41,0.4100000000000002,-0.34752026,0.14811839,-0.07719963,1.0065532,0.36987892,-1.3193163
42,0.4200000000000002,-0.35898435,0.15702136,-0.006768687,0.59712076,-1.7484491,-0.8031351
43,0.4300000000000002,-0.35898435,0.15702136,-0.006768687,0.59712076,-1.7484491,-0.8031351
44,0.4400000000000002,-0.2912365,0.15598471,-0.0046344167,0.47525316,-2.4410176,-0.63713247
45,0.45000000000000023,-0.26452765,0.1367153,0.015854584,0.35842517,-2.9323058,-0.5526803
46,0.46000000000000024,-0.29794422,0.13854466,0.04524654,0.1385137,-3.7609446,-0.39278635
47,0.47000000000000025,-0.31745756,0.152204,0.085309856,0.1385137,-3.7609446,-0.39278635
48,0.48000000000000026,-0.3474593,0.17305888,0.10329871,0.098807454,-4.63494,-0.21319197
49,0.49000000000000027,-0.35764283,0.20848778,0.072016396,0.0364992,-5.024672,-0.15943582
50,0.5000000000000002,-0.286785,0.18696213,0.071040735,-0.17501289,-5.4153204,-0.13103059
51,0.5100000000000002,-0.2306232,0.1595215,0.07293109,-0.42103887,-5.53169,-0.22999077
52,0.5200000000000002,-0.18757193,0.0866514,0.055247124,-0.68279463,-5.3272033,-0.35231653
53,0.5300000000000002,-0.17812014,-0.005488125,0.037014354,-1.018465,-4.7826166,-0.4166101
54,0.5400000000000003,-0.18360828,-0.04841746,0.025306353,-1.2221886,-4.2919393,-0.38331795
55,0.5500000000000003,-0.18159597,-0.10354263,0.0020732917,-1.682781,-2.9933925,-0.18234327
56,0.5600000000000003,-0.18080322,-0.12653178,-0.009329813,-2.029447,-1.917506,0.07040222
57,0.5700000000000003,-0.15958248,-0.13134913,-0.036343586,-2.3043363,-1.0644327,0.29764408
58,0.5800000000000003,-0.1967188,-0.16183871,-0.059698608,-2.5928175,-0.21746802,0.5345071
59,0.5900000000000003,-0.6361347,-0.5189327,-0.06896744,-2.9610167,0.83169305,0.95249164
60,0.6000000000000003,-0.6395495,-1.8008977,0.30782285,-3.6474764,2.9639182,2.0109684
61,0.6100000000000003,-0.6395495,-1.8008977,0.30782285,-4.243986,4.445572,2.7902796
62,0.6200000000000003,0.69473565,-7.239508,1.0347555,-4.0016255,3.2578971,1.0349585
63,0.6300000000000003,0.69473565,-7.239508,1.0347555,0.012370021,-5.251914,1.3142766
64,0.6400000000000003,3.0788991,-7.7761245,-0.19251123,8.356331,-15.700611,1.69622
65,0.6500000000000004,2.4769738,-6.0670614,-0.7327257,10.651657,-15.364177,-1.6085609
66,0.6600000000000004,2.532038,-2.2907436,-7.462082,5.3808064,4.138154,-0.80573124
67,0.6700000000000004,1.6452788,-1.1539698,-3.0309086,-1.4782939,5.349194,-1.0374019
68,0.6800000000000004,1.6452788,-1.1539698,-3.0309086,-3.595553,6.2372394,-1.4924965
69,0.6900000000000004,0.67229533,-0.8324266,-0.042746395,-4.2937717,7.3563447,-1.9075794
70,0.7000000000000004,0.39538893,-0.60857207,0.073540874,-4.342183,7.766999,-2.118786
71,0.7100000000000004,0.19616999,-0.4238662,0.14872819,-4.1928263,7.8349576,-2.1951442
72,0.7200000000000004,0.04524654,-0.248795,0.17379062,-3.8460076,7.6443677,-2.181247
73,0.7300000000000004,-0.055613004,-0.120189935,0.19068186,-3.4048102,7.2285213,-2.107027
74,0.7400000000000004,-0.09707884,-0.026891813,0.18427904,-3.0364585,6.722114,-1.9985983
75,0.7500000000000004,-0.11506769,0.017744938,0.1572043,-2.7860036,6.244112,-1.8984165
76,0.7600000000000005,-0.10921369,0.07451654,0.06933331,-2.4039075,5.1482196,-1.6969837
77,0.7700000000000005,-0.10579886,0.091529734,0.06183288,-2.180789,4.0269766,-1.5099062
78,0.7800000000000005,-0.10579886,0.091529734,0.06183288,-2.0807598,3.5188892,-1.3933836
79,0.7900000000000005,-0.13573962,0.06774786,0.14714272,-1.8807014,2.8162415,-1.1824824
80,0.8000000000000005,-0.18665724,0.04189269,0.23611133,-1.2738068,1.4610369,-0.7535023
81,0.8100000000000005,-0.17360769,0.05860098,0.23848954,-0.8753699,0.5911648,-0.4990769
82,0.8200000000000005,-0.17360769,0.05860098,0.23848954,-0.8753699,0.5911648,-0.4990769
83,0.8300000000000005,-0.17360769,0.05860098,0.23848954,-0.8753699,0.5911648,-0.4990769
84,0.8400000000000005,-0.19873111,0.16519257,0.24666072,-0.71776664,0.22739458,-0.3924809
85,0.8500000000000005,-0.19873111,0.16519257,0.24666072,-0.71776664,0.22739458,-0.3924809
86,0.8600000000000005,-0.19873111,0.16519257,0.24666072,-0.71776664,0.22739458,-0.3924809
87,0.8700000000000006,-0.16147284,0.2572711,0.17086363,0.5439755,-3.4707837,0.8772025
88,0.8800000000000006,-0.091529734,0.25403923,0.09555435,0.8156578,-4.7499356,1.3429873
89,0.8900000000000006,-0.091529734,0.25403923,0.09555435,0.8156578,-4.7499356,1.3429873
90,0.9000000000000006,-0.03652652,0.23562351,0.017927876,0.7684685,-4.9538116,1.511128
91,0.9100000000000006,-0.032440916,0.21708584,0.008902958,0.72784597,-4.7832274,1.5236506
92,0.9200000000000006,-0.035489876,0.17610784,0.00060979166,0.6927212,-4.5185704,1.5381587
93,0.9300000000000006,-0.045917314,0.13799585,-0.010732334,0.6389651,-4.244292,1.5648841
94,0.9400000000000006,-0.036465544,0.11433593,-0.11317733,0.55741453,-4.1555634,1.5798502
95,0.9500000000000006,-0.03945352,0.08787098,-0.28928518,0.1863139,-4.5277333,1.6230689
96,0.9600000000000006,-0.044209898,0.05506419,-0.62564623,-0.45906523,-5.7047176,1.6740762
97,0.9700000000000006,-0.1656804,-0.09457869,-0.71266353,-1.2516629,-7.293731,1.883603
98,0.9800000000000006,-0.026830835,-0.068479605,-0.14153264,-1.6165022,-8.319679,2.147344
99,0.9900000000000007,-0.005793021,-0.06884548,-0.00048783334,-1.5068518,-8.33098,2.2495112
100,1.0000000000000007,0.033294626,-0.24751444,-0.5943639,-1.374905,-7.8332777,2.2924244
101,1.0100000000000007,0.0851879,-0.588388,-1.800105,-1.5761851,-7.784561,2.292119
102,1.0200000000000007,0.5136885,-1.7608955,-1.5446024,-2.2565362,-2.3333526,1.9448422
103,1.0300000000000007,0.5136885,-1.7608955,-1.5446024,-0.29611692,3.8472292,1.5183055
104,1.0400000000000007,0.30544463,-1.24428,0.92889565,1.1765264,5.970444,1.4173601
105,1.0500000000000007,0.30544463,-1.24428,0.92889565,2.3561072,5.885687,1.7628044
106,1.0600000000000007,1.8407782,-2.4080064,-0.59351027,3.081357,0.49510628,1.6794213
107,1.0700000000000007,1.8407782,-2.4080064,-0.59351027,2.1357377,-1.5995506,-0.8049677
108,1.0800000000000007,2.5022802,-4.217441,-0.009146876,2.1357377,-1.5995506,-0.8049677
109,1.0900000000000007,2.9130359,-6.50666,-0.79602206,1.3946054,-2.447737,-4.6781588
110,1.1000000000000008,2.2410452,-6.3687863,-0.30007848,3.1149547,-2.1644483,-4.500855
111,1.1100000000000008,1.2700741,-4.9189453,-0.5742408,3.5443928,1.0703887,-2.17972
112,1.1200000000000008,1.2700741,-4.9189453,-0.5742408,3.1732922,1.1577424,-1.0691669
113,1.1300000000000008,1.1056743,-2.3609915,-0.76522756,2.7919595,0.34223726,-1.196685
114,1.1400000000000008,0.78766793,-1.557225,-0.5852781,2.6791022,-0.40530908,-1.8487836
115,1.1500000000000008,0.56137425,-1.2493412,-0.5046026,2.743854,-0.4908302,-2.1294763
116,1.1600000000000008,0.2274523,-0.82809705,-0.56234986,2.8893926,0.019089539,-2.1281018
117,1.1700000000000008,0.19641389,-0.6158896,-0.6018034,2.7262917,0.7067711,-1.9546161
118,1.1800000000000008,0.23245259,-0.42874455,-0.5185059,2.2369885,1.5829046,-1.7570012
119,1.1900000000000008,0.2648935,-0.27233297,-0.4367328,1.64674,2.3115141,-1.6977472
120,1.2000000000000008,0.23702602,-0.16208263,-0.35117903,1.1887437,2.6650524,-1.7570012
121,1.2100000000000009,0.16915621,-0.04311227,-0.35721594,0.75625116,2.620612,-1.8941404
122,1.2200000000000009,0.11366516,0.039209604,-0.41429248,0.39721513,1.9588921,-2.0454822
123,1.2300000000000009,0.041953668,0.059881546,-0.37239978,0.0035124752,0.53786683,-2.1998785
124,1.2400000000000009,-0.048905294,0.013476395,-0.07549221,-0.05131268,0.18600847,-2.2024746
125,1.2500000000000009,-0.048905294,0.013476395,-0.07549221,-0.05131268,0.18600847,-2.2024746
126,1.260000000000001,-0.06512575,-0.006341833,-0.0037807084,0.043829583,0.3538437,-2.1609359
127,1.270000000000001,-0.0757971,-0.015183813,-0.0032928751,0.07971791,0.44822237,-2.1195498
128,1.280000000000001,-0.079638794,-0.022989146,-0.0012805625,0.12614368,0.5766568,-2.0610592
129,1.290000000000001,-0.07311402,-0.033721477,-0.013293459,0.12614368,0.5766568,-2.0610592
130,1.300000000000001,-0.07311402,-0.033721477,-0.013293459,0.12614368,0.5766568,-2.0610592
131,1.310000000000001,-0.057381395,-0.035672814,-0.027684543,0.12614368,0.5766568,-2.0610592
132,1.320000000000001,-0.1355567,-0.020489,-0.017440042,0.18448131,0.95096445,-1.839468
133,1.330000000000001,-0.17354672,-0.017805915,-0.023233064,0.18417588,1.0170907,-1.6832392
134,1.340000000000001,-0.22464725,-0.021098793,-0.030550564,0.1881465,1.0563387,-1.5696182
135,1.350000000000001,-0.33081198,-0.036343586,-0.027989438,0.18203785,1.1323915,-1.264033
136,1.360000000000001,-0.3995355,-0.026403978,0.015061854,0.19120082,1.161102,-0.9839512
137,1.370000000000001,-0.7329696,-0.018049834,0.06079623,0.23900102,1.0009027,-0.5645922
138,1.380000000000001,-1.0268891,-0.01695221,0.060308397,0.322995,0.5027421,0.58184916
139,1.390000000000001,-0.7099805,-0.036892395,0.0646989,0.36667186,0.11255192,1.3788756
140,1.400000000000001,-0.29056573,-0.049515083,0.048112564,0.37888917,-0.25289822,1.8574885
141,1.410000000000001,-0.29056573,-0.049515083,0.048112564,0.38789943,-0.46609017,2.0615175
142,1.420000000000001,-0.24952675,-0.06823569,0.05116152,0.40546182,-0.70234233,2.2852468
143,1.430000000000001,-0.2031826,-0.07091877,0.047319833,0.40546182,-0.70234233,2.2852468
144,1.440000000000001,-0.12561709,-0.05585692,0.03469715,0.3914119,-0.80741113,2.3101397
145,1.450000000000001,-0.053478733,-0.042258564,0.027501604,0.37018433,-0.86009824,2.2380576
146,1.460000000000001,-0.03884373,-0.05049075,0.027257688,0.37018433,-0.86009824,2.2380576
147,1.470000000000001,-0.03884373,-0.05049075,0.027257688,0.25778514,-1.0479393,2.0178406
148,1.480000000000001,-0.06646729,-0.10872585,-0.0015854583,0.25778514,-1.0479393,2.0178406
149,1.490000000000001,-0.12897095,-0.17409553,-0.048173543,-0.05131268,-0.9584476,1.9715676
150,1.500000000000001,-0.26013714,-0.34788615,-0.18964522,-0.42149702,-0.7151705,2.1149683
151,1.5100000000000011,0.7181517,-0.73278666,-1.3953253,-1.0795516,-1.1855367,1.9779817
152,1.5200000000000011,0.9369449,-1.8502908,-2.254095,-4.8154507,-6.82703,0.89888823
153,1.5300000000000011,-0.87419736,-2.2463505,-0.44581872,-6.9710417,-7.332521,1.7143933
154,1.5400000000000011,-0.2581858,-3.4065402,-0.03457519,-8.052578,-5.1192036,3.1908545
155,1.5500000000000012,2.2001283,-6.3557367,0.6281464,-6.2031837,-4.256662,1.6905695
156,1.5600000000000012,2.2001283,-6.3557367,0.6281464,4.82385,4.4006734,0.6760751
157,1.5700000000000012,2.8030293,-8.478116,0.42636633,3.2068899,8.299826,-1.7075211
158,1.5800000000000012,2.9249878,-5.4968452,-0.6860156,0.46379945,8.638246,-2.912911
159,1.5900000000000012,1.8225454,-2.645581,-0.48307696,-2.202322,6.9183545,-3.9063306
160,1.6000000000000012,0.880966,-1.4411206,0.022867188,-3.9527562,5.1040845,-3.4376442
161,1.6100000000000012,0.880966,-1.4411206,0.022867188,-3.9527562,5.1040845,-3.4376442
162,1.6200000000000012,0.56911856,-0.9298713,0.29757833,-3.8440223,5.312695,-2.410169
163,1.6300000000000012,0.36831418,-0.43014705,0.28794363,-3.4547484,4.9842024,-0.8857546
164,1.6400000000000012,0.36831418,-0.43014705,0.28794363,-3.2453744,4.39487,-0.105068825
165,1.6500000000000012,0.28611428,-0.19690172,0.23257454,-3.147025,3.8383718,0.3529274
166,1.6600000000000013,0.3269093,-0.0065857503,0.2336112,-3.0279064,2.957046,0.6093381
167,1.6700000000000013,0.3269093,-0.0065857503,0.2336112,-3.0279064,2.957046,0.6093381
168,1.6800000000000013,0.3120304,0.16415593,0.304408,-2.557082,1.0435106,0.5296202
169,1.6900000000000013,0.23556253,0.22312276,0.30977416,-2.196366,-0.11133019,0.4729624
170,1.7000000000000013,0.11671413,0.24409962,0.24202631,-1.9280435,-0.96883225,0.5589417
171,1.7100000000000013,0.08152915,0.24861206,0.20068243,-1.7293595,-1.8240436,0.78022766
172,1.7200000000000013,0.08152915,0.24861206,0.20068243,-1.7293595,-1.8240436,0.78022766
173,1.7300000000000013,0.10707942,0.22635466,0.19293809,-1.5209018,-2.7779098,1.165989
174,1.7400000000000013,0.12409261,0.20696329,0.2054998,-1.4129313,-3.249345,1.3289373
175,1.7500000000000013,0.1671439,0.23025733,0.22952558,-1.2805263,-3.6900842,1.459968
176,1.7600000000000013,0.18055932,0.24355079,0.24367274,-1.1585059,-3.9907827,1.5305228
177,1.7700000000000014,0.21300024,0.26568624,0.2534294,-0.8859073,-4.508796,1.6615535
178,1.7800000000000014,0.28404096,0.3699606,0.24897793,-0.57818395,-4.922963,1.7582229
179,1.7900000000000014,0.28404096,0.3699606,0.24897793,-0.57818395,-4.922963,1.7582229
180,1.8000000000000014,0.3148964,0.45295325,0.23464784,-0.013744468,-5.208237,1.9659171
181,1.8100000000000014,0.32587266,0.49655336,0.1367153,0.24449882,-4.7719264,2.0599904
182,1.8200000000000014,0.29641974,0.5283845,0.08829784,0.34804046,-4.1109705,2.1190915
183,1.8300000000000014,0.27995536,0.4978949,0.04610025,0.5151121,-3.0466905,2.1035144
184,1.8400000000000014,0.22190319,0.41051176,-0.04451479,0.59559363,-0.9193522,1.7062993
185,1.8500000000000014,0.17409553,0.37794888,-0.07091877,0.5681047,-0.020463986,1.4430164
186,1.8600000000000014,0.119946025,0.3506912,-0.10329871,0.51251596,0.8881981,1.1771374
187,1.8700000000000014,0.056710627,0.30196884,-0.13452004,0.39660427,2.2576053,0.7866417
188,1.8800000000000014,0.056710627,0.30196884,-0.13452004,0.33735034,2.919783,0.6282749
189,1.8900000000000015,0.013720313,0.2514781,-0.14354497,0.33735034,2.919783,0.6282749
190,1.9000000000000015,-0.0009146876,0.10677453,-0.10732334,0.06352998,4.383416,0.29260445
191,1.9100000000000015,0.00951275,0.062320713,-0.00048783334,0.03848451,4.3562326,0.21059579
192,1.9200000000000015,0.013354438,0.051649354,0.011890938,0.10430524,3.832874,0.11407909
193,1.9300000000000015,0.0082321875,0.030184686,-0.1501917,0.14202617,3.2690454,0.063988134
194,1.9400000000000015,-1.1783004,-1.1922647,-5.838816,-3.0411925,1.1882856,0.59559363
195,1.9500000000000015,-0.01683025,-0.670344,-0.5998521,-8.769123,-4.700761,2.005318
196,1.9600000000000015,0.17440042,-0.40996295,0.56594765,-8.262105,-6.5721464,2.1606305
197,1.9700000000000015,0.5225305,-0.8347438,-1.5154543,-7.270365,-6.6915708,2.2064452
198,1.9800000000000015,0.53167737,-2.1403077,-1.8057761,-7.537466,2.1728477,1.2863295
199,1.9900000000000015,0.5596668,-1.6217409,-0.65601385,-3.9493966,17.54527,-2.0732768
200,2.0000000000000013,0.89560103,-0.8485861,1.8899273,1.9010127,-1.3655893,-2.4431555
201,2.010000000000001,0.89560103,-0.8485861,1.8899273,4.1798453,-6.2001295,-2.8748846
202,2.020000000000001,1.4960629,-2.8488247,-2.3999572,4.1798453,-6.2001295,-2.8748846
203,2.0300000000000007,1.8601085,-2.8206525,-0.42843962,5.407685,-9.685574,-2.7672195
204,2.0400000000000005,1.6824763,-2.5891755,0.49332145,6.966613,-7.6002326,-2.4796548
205,2.0500000000000003,2.1676874,-3.2323837,0.21617115,8.285012,-6.817409,-1.2843442
206,2.06,2.5165493,-4.1693897,-0.69132084,7.4441566,-4.925101,-0.7296785
207,2.07,2.0584738,-4.9109573,-1.5474074,5.73297,-0.65133506,0.14110987
208,2.0799999999999996,1.4363034,-5.072125,-2.1246972,1.5080736,2.4298692,1.9343048
209,2.0899999999999994,1.6395469,-4.648686,-1.1864107,-0.5833763,2.170557,2.1449006
210,2.099999999999999,1.0348165,-3.2858622,-0.43972078,-0.45830166,1.3016012,0.95157534
211,2.109999999999999,0.6650998,-2.0999396,-0.13689823,0.89812464,0.66843927,-0.35720345
212,2.1199999999999988,0.40343818,-1.5402118,-0.033355605,1.6807957,0.39645153,-1.0375546
213,2.1299999999999986,0.22733033,-1.1779346,0.058905877,2.1571178,0.31856623,-1.3193163
214,2.1399999999999983,0.16811956,-0.77724046,0.040673107,2.5793786,0.26251933,-1.3775011
215,2.149999999999998,0.14433768,-0.61808485,0.035550855,2.9278772,0.44058657,-1.3112222
216,2.159999999999998,0.089517415,-0.40496266,0.025062438,2.9278772,0.44058657,-1.3112222
217,2.1699999999999977,0.038965687,-0.22903776,-0.040917024,3.0737212,0.732122,-1.266171
218,2.1799999999999975,0.038965687,-0.22903776,-0.040917024,3.212693,1.2481505,-1.2038627
219,2.1899999999999973,-0.034880083,-0.08659042,-0.3026396,3.234226,1.2641857,-1.1450669
220,2.199999999999997,-0.107628234,0.033477563,-0.8599282,2.8930578,-0.9263771,-1.1052079
221,2.209999999999997,-0.107628234,0.033477563,-0.8599282,2.8930578,-0.9263771,-1.1052079
222,2.2199999999999966,-0.18604743,0.04853942,-0.8750511,2.3634377,-3.7346773,-1.1067351
223,2.2299999999999964,-0.15555786,-0.006829667,-0.27123535,1.7310394,-6.1199536,-1.0703887
224,2.239999999999996,-0.15555786,-0.006829667,-0.27123535,1.7310394,-6.1199536,-1.0703887
225,2.249999999999996,-0.11909231,-0.022135438,0.041221917,1.6158913,-5.679978,-1.0361801
226,2.259999999999996,-0.11909231,-0.022135438,0.041221917,1.6158913,-5.679978,-1.0361801
227,2.2699999999999956,-0.12726352,-0.025123417,0.03433127,1.6158913,-5.679978,-1.0361801
228,2.2799999999999954,-0.100859545,-0.03866079,0.030367626,1.4167492,-3.993226,-1.0334313
229,2.289999999999995,-0.09671296,-0.052807957,0.015488708,1.2625058,-3.3339498,-1.0700831
230,2.299999999999995,-0.12689765,-0.05786923,0.017683959,1.1388055,-2.8585439,-1.0655017
231,2.3099999999999947,-0.12689765,-0.05786923,0.017683959,0.9796751,-2.2748623,-1.0285443
232,2.3199999999999945,-0.21696389,-0.025672229,0.03439225,0.817185,-1.875509,-0.98471475
233,2.3299999999999943,-0.23342825,-0.029696856,0.027013771,0.6401868,-1.5140295,-0.9494373
234,2.339999999999994,-0.2666619,-0.010915271,0.02494048,0.36728272,-1.0714576,-0.9370673
235,2.349999999999994,-0.4551485,-0.0037197291,0.053173836,-0.0664316,-0.6951646,-0.5681047
236,2.3599999999999937,-0.8156574,0.0024391667,0.0831146,-0.16982053,-0.79168135,-0.15241088
237,2.3699999999999934,-0.8156574,0.0024391667,0.0831146,-0.16982053,-0.79168135,-0.15241088
238,2.3799999999999932,-0.79218036,-0.014635001,0.03146525,-0.31948254,-0.8394816,0.34345898
239,2.389999999999993,-0.79218036,-0.014635001,0.03146525,-0.60139686,-1.0079277,1.4263704
240,2.399999999999993,-0.6708928,-0.022440333,0.09707884,-0.60139686,-1.0079277,1.4263704
241,2.4099999999999926,-0.45508754,-0.0034148335,0.14482552,-0.53130007,-1.2889256,1.7496707
242,2.4199999999999924,-0.25013652,0.0017074167,0.12342183,-0.4251622,-1.4566082,1.8390098
243,2.429999999999992,-0.15933856,0.0012195833,0.10872585,-0.39568797,-1.4515685,1.804954
244,2.439999999999992,-0.09098092,-0.06421106,0.084883004,-0.39843684,-0.752586,1.5793921
245,2.4499999999999917,-0.089822315,-0.10287185,0.04006331,-0.44822237,-0.1742493,1.585348
246,2.4599999999999915,-0.09415183,-0.13714215,0.006341833,-0.5439755,0.27565295,1.6464345
247,2.4699999999999913,-0.09415183,-0.13714215,0.006341833,-0.5439755,0.27565295,1.6464345
248,2.479999999999991,-0.25672227,-0.35203275,0.014147166,-0.82726425,1.5375478,1.9501873
249,2.489999999999991,-0.46435636,-0.6537577,-0.057320416,-0.98532563,2.570979,2.2618814
250,2.4999999999999907,-0.17263202,-4.4600773,-4.3300695,-4.752379,-2.7490463,2.981786
251,2.5099999999999905,0.4735032,-7.095902,-0.24842913,-0.5112942,0.19822577,4.3310347
252,2.5199999999999902,0.4735032,-7.095902,-0.24842913,-0.5112942,0.19822577,4.3310347
253,2.52999999999999,0.96682465,-7.0024204,0.28702894,2.1386392,5.952576,4.0646973
254,2.53999999999999,2.1731756,-7.3085365,-0.21757366,-0.41981715,13.8263235,0.18952094
255,2.5499999999999896,1.7433335,-5.1409097,-0.043356188,-1.3895657,14.701694,-3.5159876
256,2.5599999999999894,0.9969484,-3.0190787,-0.17049775,-1.1476631,12.550685,-4.7668867
257,2.569999999999989,0.5543006,-1.9518213,-0.2558076,-1.1476631,12.550685,-4.7668867
258,2.579999999999989,0.39008373,-1.4059967,-0.09311519,-0.9430232,5.648518,-4.5426993
259,2.5899999999999888,0.19909698,-0.68747914,0.010671355,-1.3464997,2.5448647,-3.5501962
260,2.5999999999999885,0.19909698,-0.68747914,0.010671355,-1.3464997,2.5448647,-3.5501962
261,2.6099999999999883,0.13470298,-0.47173482,0.080919355,-1.6212363,1.9350684,-2.9132164
262,2.619999999999988,0.0807974,-0.19946286,0.14622805,-1.859932,1.4935656,-1.7507398
263,2.629999999999988,0.06329638,-0.123055965,0.14464259,-1.8443549,1.4185818,-1.3625349
264,2.6399999999999877,0.023781875,0.015061854,0.11281146,-1.8443549,1.4185818,-1.3625349
265,2.6499999999999875,0.0022562293,0.07183346,0.08854175,-1.6798794,1.0809261,-0.14889841
266,2.6599999999999873,-0.0017683958,0.10171325,0.13049541,-1.6102408,1.03786,0.13683382
267,2.669999999999987,-0.0017683958,0.10171325,0.13049541,-1.6102408,1.03786,0.13683382
268,2.679999999999987,-0.005793021,0.11140894,0.13866661,-1.421178,0.98975444,0.5516113
269,2.6899999999999866,-0.016281437,0.117811754,0.16379005,-1.185384,0.69989884,0.8173377
270,2.6999999999999864,0.0020732917,0.12573905,0.1750712,-0.9931142,0.4266894,0.9653198
271,2.709999999999986,0.0020732917,0.12573905,0.1750712,-0.821461,0.16920967,1.0714576
272,2.719999999999986,0.0082321875,0.15647253,0.17135146,-0.6418667,-0.17241672,1.1925616
273,2.7299999999999858,0.0082321875,0.15647253,0.17135146,-0.6418667,-0.17241672,1.1925616
274,2.7399999999999856,0.0082321875,0.15647253,0.17135146,-0.42195517,-0.9773844,1.5007432
275,2.7499999999999853,0.0082321875,0.15647253,0.17135146,-0.42195517,-0.9773844,1.5007432
276,2.759999999999985,-0.008110229,0.18013246,0.1343371,-0.3941608,-1.4943291,1.7098118
277,2.769999999999985,-0.008110229,0.18013246,0.1343371,-0.4120286,-2.4715607,2.1772764
278,2.7799999999999847,0.020184105,0.14854525,0.102384016,-0.40317106,-2.8921416,2.4518604
279,2.7899999999999845,0.022806209,0.1348859,0.0942738,-0.20586158,-3.4202344,2.7432432
280,2.7999999999999843,0.03292875,0.1276294,0.10811607,-0.20586158,-3.4202344,2.7432432
281,2.809999999999984,0.04542948,0.107201375,0.08512692,0.1965459,-3.8224893,2.926808
282,2.819999999999984,0.04542948,0.107201375,0.08512692,0.1965459,-3.8224893,2.926808
283,2.8299999999999836,0.048173543,0.07500438,0.0757971,0.3109304,-3.8876991,2.947425
284,2.8399999999999834,0.03390442,-0.00073175,0.03469715,0.5652031,-4.0043745,2.980106
285,2.849999999999983,0.03603869,-0.0071345624,0.023050126,0.91522884,-3.7618608,2.927419
286,2.859999999999983,0.032136023,-0.0056710625,0.023537958,1.1158981,-3.3615913,2.8365529
287,2.869999999999983,0.032136023,-0.0056710625,0.023537958,1.1158981,-3.3615913,2.8365529
288,2.8799999999999826,0.042990312,0.004085604,-0.000365875,1.3729197,-2.7096455,2.6716192
289,2.8899999999999824,0.058844898,0.008476105,-0.02561125,1.4726434,-2.258827,2.5283713
290,2.899999999999982,-0.002500146,-0.15372847,-1.3755682,0.61391956,-0.4738787,2.3663392
291,2.909999999999982,-0.21964696,-0.37630245,-1.8111423,0.61391956,-0.4738787,2.3663392
292,2.9199999999999817,0.17403455,-0.09463967,-0.17720546,-3.1309898,5.1644077,2.1299343
293,2.9299999999999815,0.2672717,-0.14647196,-0.112750486,-3.3861787,5.2645893,1.6630806
294,2.9399999999999813,0.20409729,-0.4561242,-1.0866487,-4.2675047,5.33041,1.2620476
295,2.949999999999981,0.029026084,-2.712902,-3.2359815,-9.234908,5.0066514,0.87979865
296,2.959999999999981,0.029026084,-2.712902,-3.2359815,-10.247417,4.964502,0.6215554
297,2.9699999999999807,0.029026084,-2.712902,-3.2359815,-8.182845,11.2742815,-0.3933972
298,2.9799999999999804,0.0071345624,-6.4856224,-3.7955875,2.6798658,7.624362,0.062155537
299,2.9899999999999802,0.18751094,-2.7238173,2.2153122,5.6347737,3.696651,0.7440339
300,2.99999999999998,0.31209138,-3.506912,-0.22062263,8.113359,-1.890628,1.2768611
301,3.00999999999998,0.4663077,-4.568315,0.10293283,5.6285124,-10.213972,2.63512
302,3.0199999999999796,0.5910101,-4.960411,-0.6433912,4.4312167,-9.785756,3.4295502
303,3.0299999999999794,0.5910101,-4.960411,-0.6433912,1.5221235,-7.392997,4.4215956
304,3.039999999999979,0.42593947,-3.8657744,-0.62875617,-0.012217305,-3.9559634,5.073083
305,3.049999999999979,0.31135964,-2.7705884,-0.2437947,0.15347989,-0.7125743,5.362939
306,3.0599999999999787,0.33343408,-1.9750541,-0.23970911,0.15347989,-0.7125743,5.362939
307,3.0699999999999785,0.33343408,-1.9750541,-0.23970911,0.15347989,-0.7125743,5.362939
308,3.0799999999999783,0.32971436,-1.3981303,-0.10500612,2.7488935,-0.1348485,3.0024028
309,3.089999999999978,0.181474,-0.99627763,-0.045673396,3.2249103,-0.66843927,1.7133243
310,3.099999999999978,0.023781875,-0.48661375,-0.07689473,3.3299792,-0.83459467,1.1456778
311,3.1099999999999777,0.023781875,-0.48661375,-0.07689473,3.3551774,-0.9254609,0.7058548
312,3.1199999999999775,0.0022562293,-0.08866371,-0.8573061,2.7910433,-1.7256943,0.19181168
313,3.1299999999999772,0.0022562293,-0.08866371,-0.8573061,2.7910433,-1.7256943,0.19181168
314,3.139999999999977,-0.032684833,0.10970152,-0.6457084,0.023365596,-4.75131,-0.14721853
315,3.149999999999977,-0.032684833,0.10970152,-0.6457084,0.023365596,-4.75131,-0.14721853
316,3.1599999999999766,-0.05847902,0.069760166,-0.27654052,-0.58123827,-4.991838,-0.12675454
317,3.1699999999999764,-0.02414775,0.067199044,0.053234816,-0.5331327,-4.8768425,-0.14523321
318,3.179999999999976,-0.013415418,0.14037405,0.053417753,-0.4268421,-4.611727,-0.44303003
319,3.189999999999976,0.021464668,0.13366634,0.02853825,-0.41279218,-4.413196,-0.7985536
320,3.1999999999999758,0.036282603,0.21507353,0.014513042,-0.49495357,-4.0986004,-1.3924674
321,3.2099999999999755,0.036282603,0.21507353,0.014513042,-0.49495357,-4.0986004,-1.3924674
322,3.2199999999999753,0.036282603,0.21507353,0.014513042,-0.49495357,-4.0986004,-1.3924674
323,3.229999999999975,-0.4750887,0.9822524,-0.04927117,-1.0894781,-3.8951821,-2.4210117
324,3.239999999999975,-0.638147,1.1457375,0.027501604,-2.9709432,-5.3672147,-2.6004534
325,3.2499999999999747,-0.71376115,0.91456556,0.27080846,-3.7087157,-5.464037,-2.210874
326,3.2599999999999745,-0.7165052,0.63125634,0.52521354,-3.676187,-4.4634395,-1.7400496
327,3.2699999999999743,-0.7051631,0.40849942,0.6465011,-3.3664784,-3.2951598,-1.3735305
328,3.279999999999974,-0.5750945,0.23263553,0.56076443,-2.4378104,-0.8874345,-0.77198094
329,3.289999999999974,-0.44490403,0.17440042,0.39270583,-1.6673567,0.55924714,-0.56505036
330,3.2999999999999736,-0.38483953,0.12573905,0.3091034,-1.1252137,1.4170547,-0.5590944
331,3.3099999999999734,-0.3434347,0.09067602,0.2359284,-0.573297,2.1577287,-0.6038403
332,3.319999999999973,-0.31276214,0.067321,0.20190202,-0.29046643,2.5011878,-0.5925393
333,3.329999999999973,-0.31276214,0.067321,0.20190202,0.22556199,3.121216,-0.41691554
334,3.3399999999999728,-0.2598932,0.0011586042,0.12427554,0.5342017,3.4639113,-0.22800545
335,3.3499999999999726,-0.2598932,0.0011586042,0.12427554,1.0752755,3.9600866,0.23090707
336,3.3599999999999723,-0.22726935,-0.09933506,0.036160648,1.2154691,4.0734024,0.40515637
337,3.369999999999972,-0.24159946,-0.40026724,-1.4952701,0.7626653,3.55829,0.591623
338,3.379999999999972,-0.41386563,-0.8023639,-2.6733267,-2.4588854,-0.114689946,0.96684694
339,3.3899999999999717,-0.63076854,-0.8501106,-0.68705225,-2.4588854,-0.114689946,0.96684694
340,3.3999999999999715,-0.94298184,-0.99188715,0.29141945,-4.813618,-1.1343768,2.3580925
341,3.4099999999999713,-1.7080874,-1.9188316,-0.20385335,-4.052327,0.33200526,3.4616206
342,3.419999999999971,-3.5773427,-5.2170725,-1.5440534,-2.3996315,-1.2846496,6.556722
343,3.429999999999971,-3.2306151,-6.0506577,-1.0629889,-0.30863968,-2.0862575,8.437576
344,3.4399999999999706,-1.3915446,-5.915162,0.6934551,3.8469238,3.8030944,6.5359526
345,3.4499999999999704,-0.85633045,-5.67649,1.1417739,5.5255814,8.748354,2.5196664
346,3.45999999999997,-1.4396572,-5.0707836,0.5632036,6.4586782,11.744495,-1.5103643
347,3.46999999999997,-0.98969185,-4.0321865,-0.5629597,6.7054677,11.493888,-1.9201022
348,3.47999999999997,-0.98969185,-4.0321865,-0.5629597,5.4733524,9.042944,-1.668273
349,3.4899999999999696,-0.38124177,-2.3982496,-0.86639196,3.8965566,7.241349,-1.5630515
350,3.4999999999999694,-0.27952853,-1.7459556,-0.39776713,2.4298692,5.980982,-1.5439619
351,3.509999999999969,-0.2093415,-1.3789219,-0.22373258,0.9410379,4.8646255,-1.464244
352,3.519999999999969,-0.09518848,-1.0120102,-0.1568994,-0.012675454,4.120286,-1.4097242
353,3.5299999999999687,0.05427146,-0.52106696,0.062686585,-1.1768318,2.437047,-1.426065
354,3.5399999999999685,0.089700356,-0.33947104,0.07110171,-1.3535247,1.5483906,-1.4737124
355,3.5499999999999683,0.089700356,-0.33947104,0.07110171,-1.3535247,1.5483906,-1.4737124
356,3.559999999999968,0.1167751,-0.22464725,0.11866546,-1.3874277,1.0622946,-1.5306755
357,3.569999999999968,0.11073817,-0.10220108,0.16726585,-1.1636983,0.7180721,-1.6403259
358,3.5799999999999677,0.11518965,-0.020306062,0.15610667,-0.9625709,0.74372846,-1.7040086
359,3.5899999999999674,0.08226089,-0.0001829375,0.1253122,-0.75243324,0.8414669,-1.7519615
360,3.5999999999999672,0.05567398,0.005914979,0.09817646,-0.57910025,0.9401216,-1.7623463
361,3.609999999999967,0.038416874,0.015488708,0.066223375,-0.46074513,0.9848675,-1.749518
362,3.619999999999967,0.030672522,0.020732917,0.05189327,-0.39477167,0.9877691,-1.7270688
363,3.6299999999999666,0.025794188,0.027501604,0.051771317,-0.3359759,0.9735665,-1.6924021
364,3.6399999999999664,0.021403689,0.033294626,0.0453685,-0.2773328,0.94225967,-1.629483
365,3.649999999999966,0.025733208,0.033355605,0.054637335,-0.2773328,0.94225967,-1.629483
366,3.659999999999966,0.030062728,0.03000175,0.06250364,-0.20357084,0.8196284,-1.5184582
367,3.6699999999999657,0.010183521,0.0582351,0.08585867,-0.1873829,0.75136423,-1.4813483
368,3.6799999999999655,0.002500146,0.06512575,0.11592139,-0.17302758,0.5514586,-1.3556627
369,3.6899999999999653,0.002500146,0.06512575,0.11592139,-0.14309518,0.3895793,-1.2362386
370,3.699999999999965,0.0075004376,0.052625023,0.16189969,0.08659015,-0.089491755,-0.9257663
371,3.709999999999965,0.030977417,0.08646846,0.18318142,-0.04444045,0.18295415,-1.0757337
372,3.7199999999999647,0.055552024,0.1086039,0.19531627,0.15836681,-0.26465738,-0.8339838
373,3.7299999999999645,0.057747275,0.11207971,0.22111045,0.3184135,-0.66859204,-0.65026605
374,3.7399999999999642,0.057747275,0.11207971,0.22111045,0.4653266,-1.0690142,-0.5412266
375,3.749999999999964,0.06335735,0.12128756,0.18842563,0.68294734,-1.7643316,-0.3791946
376,3.759999999999964,0.06335735,0.12128756,0.18842563,0.68294734,-1.7643316,-0.3791946
377,3.7699999999999636,0.034087352,0.118360564,0.093664,0.68294734,-1.7643316,-0.3791946
378,3.7799999999999634,0.021708583,0.11866546,0.064272046,0.91996306,-2.7217102,-0.075289145
379,3.789999999999963,0.006829667,0.11171384,0.045185562,0.91354895,-2.7398834,0.01160644
380,3.799999999999963,0.0041465834,0.096042186,0.031221334,0.8901834,-2.5996897,0.047647487
381,3.8099999999999627,0.002866021,0.08280971,0.018232772,0.8671232,-2.479044,0.047036625
382,3.8199999999999625,0.0023172083,0.055430062,-0.009207855,0.80924374,-2.2656991,0.035888333
383,3.8299999999999623,-0.0017074167,0.03195308,-0.027989438,0.6956228,-2.1297817,0.011453724
384,3.839999999999962,-0.082077965,-0.052381106,-0.33038515,0.44791695,-2.112983,0.04153884
385,3.849999999999962,-0.556313,-1.0694526,-3.7386937,-2.2139285,-4.01705,0.6418667
386,3.8599999999999617,-0.033416584,-1.0530493,-2.0972564,-6.9682927,-7.58267,1.7704402
387,3.8699999999999615,0.2382456,-1.2784283,-1.1858618,-8.145124,-7.9786634,2.2441661
388,3.8799999999999613,1.1305537,-2.5425873,-2.391298,-7.7538652,10.231076,0.50426924
389,3.889999999999961,1.5281379,-4.6607594,-2.4417279,-7.7538652,10.231076,0.50426924
390,3.899999999999961,0.49161404,-3.2654343,-1.8167524,0.9379836,12.838402,-0.91965765
391,3.9099999999999606,0.17933974,-1.4010574,1.0581715,6.256024,1.3177891,-0.13408493
392,3.9199999999999604,0.25190493,-1.71821,0.9590193,7.38307,-1.4895949,-0.02367103
393,3.92999999999996,0.9283469,-3.5725863,0.59973013,7.667428,-4.5335364,-0.27000242
394,3.93999999999996,1.0667696,-5.7595434,0.42575654,6.9098024,-4.744896,0.32925636
395,3.9499999999999598,1.4173998,-6.183044,0.36868006,5.786268,-5.272378,0.82711154
396,3.9599999999999596,1.5552737,-6.299087,0.3949011,2.909093,-6.7271533,0.8174904
397,3.9699999999999593,1.2193395,-5.649171,0.80894965,1.5114334,-6.369034,0.5319109
398,3.979999999999959,1.2193395,-5.649171,0.80894965,1.5114334,-6.369034,0.5319109
399,3.989999999999959,0.13762999,-2.0930488,0.115555525,1.0218248,-4.155869,0.30925053
400,3.9999999999999587,-0.20818289,-1.1609215,-0.7707157,1.6959146,-6.8143544,-0.03145956
401,4.009999999999959,-0.26593015,-0.8991988,-0.6560749,2.3651175,-8.702845,-0.5467244
402,4.019999999999959,-0.28782168,-0.80157113,-0.42362225,2.4352143,-8.817229,-0.67073005
403,4.0299999999999585,-0.28696796,-0.5864976,0.05573496,2.5418103,-7.6477275,-0.9305005
404,4.039999999999958,-0.2584297,-0.3816686,0.20598765,2.682462,-5.7112846,-1.1455251
405,4.049999999999958,-0.2494048,-0.19781642,0.21556135,2.946814,-2.8591547,-1.6694947
406,4.059999999999958,-0.20238985,-0.08848077,0.17909582,2.946814,-2.8591547,-1.6694947
407,4.069999999999958,-0.24025792,-0.045612417,0.087566085,3.0384438,-1.21608,-1.9007072
408,4.079999999999957,-0.3259946,-0.065674566,-0.056344748,2.9808698,-0.7903069,-1.8245018
409,4.089999999999957,-0.5036879,0.023964813,-0.32818988,2.491872,-1.2592987,-1.6116152
410,4.099999999999957,-0.89139354,0.35434994,-0.357094,1.788308,-2.4097106,-1.4926492
411,4.109999999999957,-1.3809342,1.0459757,-0.014817937,0.9822713,-4.757113,-1.5578591
412,4.119999999999957,-1.5224059,1.4650855,0.38941297,0.74174315,-6.948134,-1.3238977
413,4.129999999999956,-1.4232538,1.4680735,0.22031774,0.88407475,-6.7809095,-1.1684325
414,4.139999999999956,-1.2508047,1.355506,-0.24684367,0.6215554,-5.7908497,-0.7287622
415,4.149999999999956,-0.81504756,1.0102419,-0.5388729,-0.08735373,-5.401881,-0.46578476
416,4.159999999999956,-0.5996082,0.73479897,-0.5216158,-0.84681195,-4.9411364,-0.2350304
417,4.1699999999999555,-0.4679541,0.3093473,-0.31867713,-0.84681195,-4.9411364,-0.2350304
418,4.179999999999955,-0.4679541,0.3093473,-0.31867713,-0.84681195,-4.9411364,-0.2350304
419,4.189999999999955,-0.42618343,0.1515942,-0.21013421,-2.288912,-2.6795604,0.80832744
420,4.199999999999955,-0.16324124,-0.06006448,-0.002134271,-2.5746443,-1.8826867,1.0823005
421,4.209999999999955,-0.134642,-0.072321296,0.068479605,-2.6293168,-1.2541064,1.2310462
422,4.2199999999999545,-0.15830192,-0.12738548,0.4241711,-2.6293168,-1.2541064,1.2310462
423,4.229999999999954,-0.15830192,-0.12738548,0.4241711,-2.2748623,0.5589417,1.6943874
424,4.239999999999954,-0.18190086,-0.1847059,0.532775,-1.6358972,1.4692836,2.0653355
425,4.249999999999954,-0.17251006,-0.2271474,0.49393123,-1.0839803,1.9297233,2.3776402
426,4.259999999999954,-0.14897211,-0.23598938,0.43337893,-0.7984009,1.9671388,2.5248587
427,4.269999999999953,-0.052990895,-0.26221043,-0.031343292,-0.5045747,1.562746,2.6482534
428,4.279999999999953,0.24074577,-0.46063665,-0.8951742,-2.397188,1.0592403,2.0645719
429,4.289999999999953,0.03561183,-0.6390007,-0.7966318,-3.8475347,1.3926201,1.830305
430,4.299999999999953,0.03561183,-0.6390007,-0.7966318,-3.8475347,1.3926201,1.830305
431,4.3099999999999525,-0.80718124,-1.2200712,-0.88950306,-6.074444,3.5243871,2.77455
432,4.319999999999952,-0.80718124,-1.2200712,-0.88950306,-6.660111,4.171904,2.9999592
433,4.329999999999952,-2.1880546,-4.4078183,-2.7349765,-7.6229873,3.4119878,5.6627207
434,4.339999999999952,-2.0143247,-3.954133,0.3409955,-1.758681,3.254232,7.4742417
435,4.349999999999952,-1.481184,-3.0818262,1.8584621,-1.758681,3.254232,7.4742417
436,4.3599999999999515,-0.58411944,-4.028223,1.0716479,4.030947,13.542119,8.798292
437,4.369999999999951,-0.6097917,-4.135485,0.82071865,4.0356812,16.237715,7.7909756
438,4.379999999999951,-0.10811607,-4.15884,0.32410428,4.030489,18.014874,3.6931386
439,4.389999999999951,-0.2967856,-4.633868,0.1214705,5.0333767,15.767806,1.2508993
440,4.399999999999951,-0.55484945,-4.4534917,-0.26538134,5.689599,12.671483,0.35628715
441,4.40999999999995,-0.4455748,-3.867543,-0.28172377,5.252219,9.88884,0.04337143
442,4.41999999999995,-0.2680644,-3.4489815,-0.1949504,4.448321,8.050135,-0.21594086
443,4.42999999999995,-0.041221917,-2.6366782,-0.055978876,3.367853,5.2045717,-0.6783658
444,4.43999999999995,0.09317617,-2.0445094,-0.0010366458,2.3953552,2.3866506,-1.1916454
445,4.4499999999999496,0.1243975,-1.3678846,0.1308613,1.7658587,0.38163805,-1.5091426
446,4.459999999999949,0.1243975,-1.3678846,0.1308613,1.1707232,-1.9856175,-1.794264
447,4.469999999999949,0.16994894,-0.86425775,0.10512808,0.9228647,-3.0344732,-1.8148806
448,4.479999999999949,0.15470415,-0.65936774,0.04494165,0.9228647,-3.0344732,-1.8148806
449,4.489999999999949,0.15470415,-0.65936774,0.04494165,0.7307475,-3.437186,-1.7348573
450,4.4999999999999485,0.1387276,-0.30672523,0.017562,0.22724187,-3.8986948,-1.3385584
451,4.509999999999948,0.14616705,-0.24672171,0.017379062,0.22724187,-3.8986948,-1.3385584
452,4.519999999999948,0.14616705,-0.24672171,0.017379062,0.04260785,-3.7823248,-1.144456
453,4.529999999999948,0.12427554,0.0075004376,0.0086590415,-0.05100725,-3.4336736,-1.0877982
454,4.539999999999948,0.097017854,0.048661377,-0.015000875,-0.12599096,-3.1302261,-1.0160216
455,4.549999999999947,-0.010305479,0.19787739,-0.54423904,-0.42012256,-1.9843957,-0.82940227
456,4.559999999999947,-0.047075916,0.21702486,-0.5857659,-0.99280876,0.03145956,-0.43508878
457,4.569999999999947,-0.0131715005,0.1683025,-0.33093393,-1.5877914,2.047315,0.014049901
458,4.579999999999947,0.038172957,0.088968605,-0.10378654,-1.8596265,3.0847168,0.29077184
459,4.589999999999947,0.038172957,0.088968605,-0.10378654,-1.7843374,3.1305315,0.34605515
460,4.599999999999946,0.14793546,0.061101127,0.09939604,-1.6911805,3.1322114,0.34055737
461,4.609999999999946,0.15909465,0.0670161,0.10037171,-1.5870279,3.312264,0.31597003
462,4.619999999999946,0.25800288,0.12421457,0.122629106,-1.4504995,3.3534975,0.3680463
463,4.629999999999946,0.25800288,0.12421457,0.122629106,-1.300074,3.119078,0.4970916
464,4.6399999999999455,0.30946928,0.15342359,0.17244908,-1.141249,2.5405886,0.6962337
465,4.649999999999945,0.30946928,0.15342359,0.17244908,-1.141249,2.5405886,0.6962337
466,4.659999999999945,0.30946928,0.15342359,0.17244908,-1.141249,2.5405886,0.6962337
467,4.669999999999945,0.30946928,0.15342359,0.17244908,-1.141249,2.5405886,0.6962337
468,4.679999999999945,0.30007848,0.1636681,0.18202282,0.014049901,-1.120785,1.7095064
469,4.689999999999944,0.28544348,0.14153264,0.14409378,0.014049901,-1.120785,1.7095064
470,4.699999999999944,0.25623447,0.117811754,0.10854292,0.26847526,-1.4998269,1.8325957
471,4.709999999999944,0.22824502,0.12500729,-0.46929568,0.39370266,-1.07665,1.8597792
472,4.719999999999944,0.20891462,0.12561709,-0.68540585,0.05955936,-0.3013093,1.8446603
473,4.729999999999944,0.12598296,0.09354204,-0.36367974,-1.3501649,2.42147,1.7953329
474,4.739999999999943,0.15433827,0.066650234,-0.0014025208,-1.7075211,2.7546968,1.727985
475,4.749999999999943,0.15269183,0.06457694,0.11403105,-1.698969,2.4874432,1.6557503
476,4.759999999999943,0.14744763,0.071467586,0.14354497,-1.5092953,1.6668985,1.511128
477,4.769999999999943,0.14208147,0.07677277,0.14006914,-1.40667,1.2793045,1.4350752
478,4.7799999999999425,0.11732392,0.08000467,-0.021037813,-1.40667,1.2793045,1.4350752
479,4.789999999999942,-0.5409462,-0.36136255,-2.3047686,-1.1963795,0.50762904,1.2658654
480,4.799999999999942,-0.042746395,-0.45191658,-0.96536124,-5.1198144,3.0091221,1.7446312
481,4.809999999999942,0.49600452,-0.19440159,0.4490506,-5.3381987,1.5117388,1.2331842
482,4.819999999999942,0.43386677,-0.48704064,-0.6877841,-5.351943,0.9764681,0.93554014
483,4.8299999999999415,1.352518,-4.7632656,-2.312574,-11.980747,2.702468,0.43768495
484,4.839999999999941,1.352518,-4.7632656,-2.312574,-13.523182,10.392956,-1.4094188
485,4.849999999999941,1.2209859,-3.3464148,-0.69296724,5.920506,2.5126414,-2.7554605
486,4.859999999999941,0.4414282,-1.987799,-0.0075004376,5.920506,2.5126414,-2.7554605
487,4.869999999999941,0.4414282,-1.987799,-0.0075004376,4.809342,-8.130922,-2.1975877
488,4.87999999999994,0.8153525,-2.742355,-1.943711,2.8098273,-9.864252,-1.9607247
489,4.88999999999994,0.8153525,-2.742355,-1.943711,2.8098273,-9.864252,-1.9607247
490,4.89999999999994,0.93981093,-4.083836,0.5812534,4.6439505,-2.1267273,-0.6389651
491,4.90999999999994,1.0218279,-4.0455413,0.49484593,5.0720143,-2.2653937,0.28053987
492,4.9199999999999395,1.0307918,-4.0260887,0.022501312,4.68778,-2.8787024,1.4025466
493,4.929999999999939,0.7623616,-3.6978378,-0.2883095,4.2745295,-2.9353602,1.9872974
494,4.939999999999939,0.2125124,-3.1214626,-0.48801628,4.117232,-3.527594,2.4121542
495,4.949999999999939,-0.08250481,-2.280621,-0.48667476,3.8983893,-4.427857,2.8780916
496,4.959999999999939,-0.207817,-1.3456882,-0.048173543,3.7798815,-4.6053133,3.061504
497,4.9699999999999385,-0.207817,-1.3456882,-0.048173543,3.6025777,-4.6347876,3.683212
498,4.979999999999938,-0.204829,-1.0747578,0.07616298,3.8212676,-4.373948,4.053091
499,4.989999999999938,-0.14537434,-0.5683868,-0.025916148,4.1150937,-3.036611,4.227951
500,4.999999999999938,-0.14537434,-0.5683868,-0.025916148,4.1150937,-3.036611,4.227951
501,5.009999999999938,-0.15275282,-0.46283188,-0.08384635,4.1308236,-2.6691756,4.1813726
502,5.019999999999937,-0.24013597,-0.23458686,-0.9008453,3.5592062,-3.015689,4.160756
503,5.029999999999937,-0.07030898,0.0032928751,-0.47075918,1.6143641,-5.3004775,3.525456
504,5.039999999999937,-0.07030898,0.0032928751,-0.47075918,1.6143641,-5.3004775,3.525456
505,5.049999999999937,0.09781059,0.053600688,-0.14909407,1.311375,-5.352707,2.6148088
506,5.0599999999999365,0.17909582,0.1261659,-0.03561183,0.75747293,-3.7638462,-0.03894266
507,5.069999999999936,0.16793664,0.1390325,-0.093359105,0.75747293,-3.7638462,-0.03894266
508,5.079999999999936,0.1015913,0.22361061,-0.040002335,-0.3368922,-1.8837557,-2.4000895
509,5.089999999999936,-0.043722063,0.1674488,0.04744179,-0.9680687,-0.37018433,-3.6887097
510,5.099999999999936,-0.043722063,0.1674488,0.04744179,-1.2854131,0.9082039,-4.505742
511,5.1099999999999355,-0.24257512,0.1908648,0.13189794,-1.1670581,2.6607764,-5.051703
512,5.119999999999935,-0.53167737,0.2025728,0.22726935,-0.86070913,3.6635115,-5.1187453
513,5.129999999999935,-0.92792004,0.06372323,0.11049425,-0.86070913,3.6635115,-5.1187453
514,5.139999999999935,-0.92792004,0.06372323,0.11049425,-0.5439755,3.8073704,-4.1778603
515,5.149999999999935,-1.0573177,0.18720604,-0.042868353,-0.58383447,3.545462,-3.726889
516,5.159999999999934,-0.97536176,0.2309891,-0.07573613,-0.7473936,2.9683468,-2.8764117
517,5.169999999999934,-0.901638,0.24794129,-0.09909115,-0.7473936,2.9683468,-2.8764117
518,5.179999999999934,-0.7657764,0.25647837,-0.13537374,-1.0651963,2.0157025,-1.9509509
519,5.189999999999934,-0.6940649,0.27727225,-0.15537491,-1.2632693,1.3900238,-1.6204728
520,5.199999999999934,-0.6940649,0.27727225,-0.15537491,-1.2632693,1.3900238,-1.6204728
521,5.209999999999933,-0.4114874,0.24422157,-0.070735835,-1.7461584,-0.11346822,-1.071763
522,5.219999999999933,-0.31507936,0.21568331,-0.043600105,-1.8664987,-0.48747048,-0.9621128
523,5.229999999999933,-0.100859545,0.14653294,0.023720896,-2.0399845,-1.2060007,-0.71791935
524,5.239999999999933,-0.100859545,0.14653294,0.023720896,-1.9917262,-1.3336716,-0.644921
525,5.2499999999999325,-0.06104015,0.09817646,0.068052754,-1.8585575,-1.3729197,-0.52656585
526,5.259999999999932,-0.09500554,0.072138354,0.06366225,-1.8585575,-1.3729197,-0.52656585
527,5.269999999999932,-0.09500554,0.072138354,0.06366225,-1.6649132,-1.1968378,-0.3559817
528,5.279999999999932,-0.1604362,0.0065857503,-0.030245667,-1.4138476,-0.72265357,-0.14340061
529,5.289999999999932,-0.26007617,-0.032684833,-0.08384635,-1.035722,0.13118331,0.26160303
530,5.299999999999931,-0.5704601,-0.18476687,-0.21665898,-1.0013609,0.28221974,0.69058317
531,5.309999999999931,-0.8971865,-0.5907662,-1.1335417,-1.5549575,-0.9943359,1.4984524
532,5.319999999999931,-1.6990626,-2.6952794,-3.527401,-7.3340483,-13.943915,3.5240817
533,5.329999999999931,-4.184451,-3.5189857,0.3831321,-7.3951344,-14.453683,7.8969603
534,5.339999999999931,-3.4263587,-5.149203,1.4994167,-7.3951344,-14.453683,7.8969603
535,5.34999999999993,-2.587834,-6.280793,-0.3641676,-1.5247196,-7.699651,4.048815
536,5.35999999999993,-2.1241484,-7.585931,-2.8633988,1.6136005,-12.40255,1.6412421
537,5.36999999999993,-0.89303994,-6.4679995,-2.531428,2.874121,1.5238034,-1.4909693
538,5.37999999999993,-1.0481099,-3.5406334,0.9713372,5.679978,7.371158,-0.68737614
539,5.3899999999999295,-0.33349505,-2.6007614,0.44892865,7.4334664,9.522931,-0.03436117
540,5.399999999999929,0.032745812,-2.0192642,0.08238286,7.2902184,11.346364,-0.3510948
541,5.409999999999929,0.20263378,-1.3897152,-0.12683667,7.2902184,11.346364,-0.3510948
542,5.419999999999929,0.20263378,-1.3897152,-0.12683667,6.3287168,10.970681,-0.9184359
543,5.429999999999929,0.19848719,-1.3239797,-0.13939838,6.1454573,10.801014,-0.98853266
544,5.4399999999999284,0.16433886,-0.63625664,-0.65162337,4.5970664,9.13442,-1.3070989
545,5.449999999999928,0.11598238,-0.4776498,-0.63503706,3.4892623,7.8334303,-1.3979651
546,5.459999999999928,0.033538543,-0.28227258,-0.20598765,1.1478158,4.477642,-1.5250251
547,5.469999999999928,0.04049017,-0.1595215,-0.09000525,0.38789943,3.0607402,-1.4824172
548,5.479999999999928,0.046892982,-0.081346214,-0.04610025,0.12232576,2.5244007,-1.4634804
549,5.489999999999927,0.023842854,-0.013659334,-0.022257395,-0.21288654,1.7986927,-1.4149166
550,5.499999999999927,0.011829958,0.014086187,-0.005183229,-0.39187005,1.4558446,-1.3584116
551,5.509999999999927,0.020001167,0.05921077,0.075675145,-0.62980205,1.066418,-1.2139419
552,5.519999999999927,0.013293459,0.072321296,0.05744238,-0.73624533,0.9388999,-1.0942124
553,5.5299999999999265,0.005366167,0.08055348,0.063113436,-0.8191703,0.8165741,-0.9841039
554,5.539999999999926,0.0052442085,0.08055348,0.073845774,-0.88621277,0.6722572,-0.8516989
555,5.549999999999926,0.0023781876,0.09177365,0.066345334,-0.91889405,0.56123245,-0.767094
556,5.559999999999926,0.0013415418,0.12482436,0.048905294,-1.0238101,0.35934147,-0.59559363
557,5.569999999999926,0.0014025208,0.12580003,0.04451479,-1.1213958,0.22220223,-0.47708577
558,5.5799999999999255,0.01841571,0.13336144,0.09622513,-1.3061826,-0.005497787,-0.20937407
559,5.589999999999925,0.01841571,0.13336144,0.09622513,-1.4285084,-0.2171626,0.03176499
560,5.599999999999925,0.034636166,0.13939838,0.12311694,-1.5291485,-0.50671273,0.23289238
561,5.609999999999925,0.034636166,0.13939838,0.12311694,-1.5291485,-0.50671273,0.23289238
562,5.619999999999925,0.034636166,0.13939838,0.12311694,-1.5291485,-0.50671273,0.23289238
563,5.629999999999924,0.10671354,0.10890879,0.20165811,-1.4873042,-1.9640845,0.838718
564,5.639999999999924,0.10671354,0.10890879,0.20165811,-1.3628404,-2.34389,1.0048733
565,5.649999999999924,0.14708175,0.102688916,0.16318026,-1.0574077,-2.7224736,1.2066116
566,5.659999999999924,0.15683842,0.10665256,0.16031423,-0.99464136,-2.780506,1.2377657
567,5.6699999999999235,0.17025384,0.11153089,0.13311753,-0.7857254,-2.9194777,1.3191634
568,5.679999999999923,0.17025384,0.11153089,0.13311753,-0.7857254,-2.9194777,1.3191634
569,5.689999999999923,0.17287594,0.10903075,0.11122601,-0.6731735,-2.9321532,1.35551
570,5.699999999999923,0.17421748,0.09921311,0.08116327,-0.5491679,-2.8142562,1.3545936
571,5.709999999999923,0.18214478,0.0918956,0.07646788,-0.49189925,-2.727208,1.3104587
572,5.7199999999999225,0.17208321,0.080614455,0.059881546,-0.39538252,-2.6108382,1.1968378
573,5.729999999999922,0.16433886,0.07713865,0.058418043,-0.33414328,-2.5447118,1.0966558
574,5.739999999999922,0.16433886,0.07713865,0.058418043,-0.33414328,-2.5447118,1.0966558
575,5.749999999999922,-0.18019344,-0.13482493,-0.9126752,-0.5036584,-2.3703098,0.9505063
576,5.759999999999922,-0.6693683,-0.68071043,-2.8352263,-2.1786509,-1.4220943,1.2663237
577,5.769999999999921,-0.3606918,-1.1535429,-1.9667002,-8.3276205,1.6140587,2.2304218
578,5.779999999999921,-0.07469948,-0.7981563,0.060918186,-9.490555,1.4967725,2.2322543
579,5.789999999999921,-0.4455748,-1.1873254,-0.799071,-9.254303,0.18753563,2.3160956
580,5.799999999999921,-1.9067577,-4.6525273,-6.7094765,-10.605843,-7.5780888,3.753767
581,5.809999999999921,-1.2336695,-4.0593834,-2.4509356,4.001778,-16.611565,4.937624
582,5.81999999999992,-0.056954544,-1.3314191,1.0588423,4.001778,-16.611565,4.937624
583,5.82999999999992,-0.60284007,-2.6678386,-0.91743153,4.0619483,-7.8403025,4.727028
584,5.83999999999992,-0.75571483,-4.680944,1.3630064,4.1438046,3.340822,4.7696357
585,5.84999999999992,-0.75571483,-4.680944,1.3630064,6.281222,10.043846,1.2786937
586,5.8599999999999195,-0.75571483,-4.680944,1.3630064,6.7399817,11.790769,-1.1001683
587,5.869999999999919,-3.9308393,-4.6267943,0.045002624,-0.16035213,0.9757045,-1.781894
588,5.879999999999919,-2.619726,-3.09079,0.21519548,-0.16035213,0.9757045,-1.781894
589,5.889999999999919,-1.8775486,-1.8999888,0.21184163,1.1100949,-0.43142357,-2.883742
590,5.899999999999919,-1.4678905,-1.454719,0.12226323,1.486846,-0.4728097,-2.7514899
591,5.909999999999918,-0.8749291,-0.88828355,0.10031073,2.3803892,-1.1540772,-2.5657868
592,5.919999999999918,-0.6679658,-0.62717074,0.11573846,3.132975,-1.560608,-2.5286767
593,5.929999999999918,-0.4028284,-0.41557303,-0.20824386,3.8076758,-1.8724546,-2.499966
594,5.939999999999918,0.03079448,-0.14452063,-0.8495008,3.8209622,-4.5474334,-2.931695
595,5.949999999999918,0.066650234,-0.08470006,-0.81382793,3.6236527,-5.6450057,-3.1597004
596,5.959999999999917,-0.1009815,-0.09140777,-0.46508813,3.037222,-7.7294307,-3.6306777
597,5.969999999999917,-0.25245374,-0.09762765,-0.13073933,2.7710376,-8.085107,-3.7116172
598,5.979999999999917,-0.3064203,-0.014147166,0.006097917,2.6105325,-7.762723,-3.7187948
599,5.989999999999917,-0.406792,0.20848778,0.015000875,2.563496,-7.1967564,-3.7459784
600,5.9999999999999165,-0.51503,0.60875505,-0.024635585,2.2009475,-6.55153,-4.1766386
601,6.009999999999916,-0.51503,0.60875505,-0.024635585,1.9246837,-6.387512,-4.284303
602,6.019999999999916,-0.45228252,0.5052734,-0.04610025,1.9246837,-6.387512,-4.284303
603,6.029999999999916,-0.5686307,0.2037314,-1.2681837,0.43768495,-6.300006,-4.0052905
604,6.039999999999916,-0.5686307,0.2037314,-1.2681837,0.43768495,-6.300006,-4.0052905
605,6.0499999999999154,-0.58753425,0.26519838,-1.2164735,-1.148274,-6.2602997,-3.4869716
606,6.059999999999915,-0.5374704,0.5577155,-0.23763582,-2.614656,-3.9645154,-2.3202188
607,6.069999999999915,-0.5374704,0.5577155,-0.23763582,-2.614656,-3.9645154,-2.3202188
608,6.079999999999915,-0.49502888,0.58814406,0.03725827,-2.5192082,-2.4616342,-1.749518
609,6.089999999999915,-0.49862665,0.48783335,0.36154547,-2.5192082,-2.4616342,-1.749518
610,6.099999999999914,-0.54125106,0.44398934,0.45862433,-1.4372132,-2.238821,-0.24266621
611,6.109999999999914,-0.4753326,0.383437,0.43514732,-1.1276573,-3.0369165,0.24587326
612,6.119999999999914,-0.37575364,0.30196884,0.37282664,-0.8390234,-3.5614972,0.79427755
613,6.129999999999914,-0.283919,0.2072682,0.3096522,-0.6516405,-3.3473887,1.1566733
614,6.1399999999999135,-0.17427845,0.103359684,0.22476922,-0.5047274,-2.730873,1.4144585
615,6.149999999999913,-0.10287185,0.029940773,0.14500846,-0.3747658,-1.4517213,1.5861117
616,6.159999999999913,-0.03500204,-0.0027440626,0.005732042,-0.39935315,-0.4888449,1.6113098
617,6.169999999999913,0.08915155,-0.10116444,-0.21550037,-0.8949176,1.8341229,1.3920091
618,6.179999999999913,0.0031709166,-0.11427496,-0.041221917,-1.1792754,3.4213035,1.2331842
619,6.1899999999999125,-0.076102,-0.1235438,0.096469045,-1.1742357,4.214665,1.2189816
620,6.199999999999912,-0.1094576,-0.15464316,0.037075333,-1.1754575,4.8055243,1.2666291
621,6.209999999999912,-0.15811898,-0.22245201,-0.17940071,-1.319469,5.0109277,1.3260357
622,6.219999999999912,-0.1829375,-0.25361237,-0.2660521,-1.4094188,5.06056,1.3545936
623,6.229999999999912,-0.1829375,-0.25361237,-0.2660521,-1.4094188,5.06056,1.3545936
624,6.239999999999911,-0.79339993,-1.1522014,-1.0388411,-7.435757,5.2989507,3.2534683
625,6.249999999999911,-1.0085955,-1.5428948,-1.1765321,-9.095325,6.3050456,3.9826887
626,6.259999999999911,-2.1291487,-3.7507677,-1.7848603,-9.095325,6.3050456,3.9826887
627,6.269999999999911,-2.3923957,-4.3339725,0.251722,-4.0764565,-6.2738914,7.404603
628,6.2799999999999105,-2.3923957,-4.3339725,0.251722,-4.0764565,-6.2738914,7.404603
629,6.28999999999991,-0.67314905,-4.431417,1.4923432,6.3429193,5.0662107,4.1535783
630,6.29999999999991,-0.36026493,-4.5783157,1.2901973,7.1717105,9.415571,1.082606
631,6.30999999999991,-1.1027473,-4.5941706,0.6679658,8.027227,14.154664,-2.6751316
632,6.31999999999991,-1.1931183,-4.386658,0.2112928,8.307462,15.263537,-2.6068676
633,6.3299999999999095,-0.8234017,-3.893337,-1.7929704,8.307462,15.263537,-2.6068676
634,6.339999999999909,-0.3427639,-3.237994,-2.142198,3.913661,5.807038,-0.95157534
635,6.349999999999909,-0.31751853,-2.76632,-1.0283527,2.167808,3.131448,-0.94913185
636,6.359999999999909,-0.31751853,-2.76632,-1.0283527,0.12293663,1.0403035,-0.6743952
637,6.369999999999909,-0.23251356,-1.6310707,0.05640573,-0.6763805,0.17867808,-0.47891834
638,6.379999999999908,0.06518673,-1.0187789,0.14250831,-1.2009611,-0.6800457,-0.36254853
639,6.389999999999908,0.06518673,-1.0187789,0.14250831,-1.3257303,-1.4645494,-0.41508293
640,6.399999999999908,0.15000875,-0.5996082,0.14019111,-1.0596985,-2.1896465,-0.7457138
641,6.409999999999908,0.15647253,-0.44575772,0.08232188,-1.0596985,-2.1896465,-0.7457138
642,6.419999999999908,0.15647253,-0.44575772,0.08232188,-0.5233588,-2.7250698,-1.0642799
643,6.429999999999907,0.07890704,-0.05256404,-0.09726177,-0.20570888,-2.9110782,-1.0945178
644,6.439999999999907,0.058966853,0.018781584,-0.14269125,-0.034055736,-2.7939448,-1.0670289
645,6.449999999999907,0.033843435,0.09085896,-0.25788093,0.12873985,-2.0276144,-0.9944886
646,6.459999999999907,0.033477563,0.10299382,-0.28093103,0.1160644,-1.6687311,-0.9728029
647,6.4699999999999065,0.023720896,0.080919355,-0.16574138,-0.07513642,-0.5737552,-0.91981035
648,6.479999999999906,0.025184397,0.058844898,-0.056283772,-0.15241088,-0.25320363,-0.90087354
649,6.489999999999906,0.019452354,0.041404855,-0.005488125,-0.16371189,-0.06536258,-0.8857546
650,6.499999999999906,0.01536675,0.0336605,0.017013188,-0.13927728,0.0777326,-0.86177814
651,6.509999999999906,0.017683959,0.035672814,0.028233355,-0.10934488,0.15607607,-0.84467393
652,6.519999999999905,0.023476979,0.03719729,0.031160356,-0.07360926,0.27229318,-0.8168796
653,6.529999999999905,0.03164819,0.044575773,0.040917024,-0.037873644,0.36774087,-0.7901542
654,6.539999999999905,0.03731925,0.059759583,0.04762473,0.007483099,0.47800204,-0.7290677
655,6.549999999999905,0.03731925,0.059759583,0.04762473,0.007483099,0.47800204,-0.7290677
656,6.559999999999905,0.03725827,0.06658925,0.04847844,0.025503624,0.5160284,-0.70096785
657,6.569999999999904,0.03725827,0.06658925,0.04847844,0.025503624,0.5160284,-0.70096785
658,6.579999999999904,0.04896627,0.067625895,0.049576063,0.18463401,0.8492554,-0.5007568
659,6.589999999999904,0.072321296,0.08140719,0.048661377,0.23197608,1.0022771,-0.41050145
660,6.599999999999904,0.06896744,0.092078544,0.03439225,0.23197608,1.0022771,-0.41050145
661,6.6099999999999035,0.06500379,0.1027499,0.033721477,0.2527455,1.3151928,-0.18417588
662,6.619999999999903,0.063540295,0.10811607,0.0307335,0.24419338,1.3556627,-0.046120327
663,6.629999999999903,0.063540295,0.10811607,0.0307335,0.24419338,1.3556627,-0.046120327
664,6.639999999999903,0.051344458,0.11433593,0.024635585,0.119729586,1.4921911,0.33169982
665,6.649999999999903,0.040124293,0.09890821,-0.06006448,0.011301007,1.6333009,0.45280385
666,6.659999999999902,0.028843146,0.09213952,-0.15848486,-0.28252518,1.8538233,0.5479461
667,6.669999999999902,0.024086772,0.09402988,-0.16348514,-0.5381723,1.9315559,0.5888741
668,6.679999999999902,-0.046588086,0.0898833,-0.40874338,-0.86422163,1.9466748,0.623388
669,6.689999999999902,-0.60930383,-0.30257863,-2.0824995,-2.5274549,1.8023579,0.9682214
670,6.699999999999902,-0.40599927,-0.52997,-1.2053752,-5.587279,0.25152376,1.9083431
671,6.709999999999901,-0.0898833,-0.34764224,-0.15232596,-6.308253,-1.0097603,2.2221751
672,6.719999999999901,0.090249166,-0.32800692,0.1542773,-6.1317124,-2.047315,2.2899811
673,6.729999999999901,0.10220108,-0.5550324,-0.4290494,-5.9709024,-3.3522758,2.2707388
674,6.739999999999901,-0.4668565,-1.8517543,-3.3451343,-7.9719443,-6.2349486,2.797152
675,6.7499999999999005,-0.49551672,-3.228603,-4.802597,-9.083261,-7.0125804,3.24232
676,6.7599999999999,0.33044612,-1.4000818,0.8347438,6.72471,3.289204,1.9601139
677,6.7699999999999,0.33044612,-1.4000818,0.8347438,6.72471,3.289204,1.9601139
678,6.7799999999999,0.13945936,-0.7396773,0.55308104,7.627416,3.4423783,1.7742581
679,6.7899999999999,0.11049425,-0.5378972,0.008415125,7.721031,2.9423852,1.7121025
680,6.7999999999998995,0.18116911,-5.1703014,0.60991365,6.870554,1.2945762,1.205848
681,6.809999999999899,-0.5322872,-7.242617,0.75205606,5.086522,-1.3888022,-1.2508993
682,6.819999999999899,-1.3236748,-7.9959545,1.0905514,0.5627596,-1.7536414,-1.619251
683,6.829999999999899,-1.2508047,-6.609471,1.5201497,0.5627596,-1.7536414,-1.619251
684,6.839999999999899,-0.37508285,-3.5966122,0.7657764,-0.5902485,-0.08552113,0.41080686
685,6.849999999999898,-0.37508285,-3.5966122,0.7657764,-0.063682705,-1.9646953,0.18952094
686,6.859999999999898,-0.2646496,-1.3848369,-0.44594067,0.8246681,-10.264979,-0.5012149
687,6.869999999999898,-0.24897793,-1.027621,-0.019391375,1.1139128,-12.126286,-0.7974846
688,6.879999999999898,-0.2745282,-0.77315485,0.19019403,1.1139128,-12.126286,-0.7974846
689,6.8899999999998975,-0.2745282,-0.77315485,0.19019403,1.8555032,-9.943817,-1.4391985
690,6.899999999999897,-0.097322755,-0.20208496,-0.028965104,2.8226557,-7.014871,-2.4507914
691,6.909999999999897,-0.14805742,-0.0023172083,-0.54216576,3.0040824,-6.1031547,-3.2388074
692,6.919999999999897,-0.25257573,0.13104422,-0.8513911,2.492483,-5.8656807,-3.821573
693,6.929999999999897,-0.2930049,0.062076796,-0.41282898,1.5761851,-5.6083536,-4.1648793
694,6.9399999999998965,-0.34910575,0.028660208,-0.09232246,1.2843442,-5.2148037,-4.211152
695,6.949999999999896,-0.34910575,0.028660208,-0.09232246,1.3880385,-3.805385,-4.0818014
696,6.959999999999896,-0.45563635,0.10220108,0.240014,1.6491834,-2.9150488,-4.0508003
697,6.969999999999896,-0.4721007,0.08713923,0.1367153,1.8478674,-1.982105,-3.8368447
698,6.979999999999896,-0.61509687,0.17659567,0.04988096,1.8478674,-1.982105,-3.8368447
699,6.989999999999895,-1.071221,0.5286894,-0.07110171,1.1722504,-3.2798882,-2.8582385
700,6.999999999999895,-1.0848805,0.6099746,-0.06640632,1.1722504,-3.2798882,-2.8582385
701,7.009999999999895,-1.1261632,0.6633314,-0.06652827,0.50518554,-4.6857944,-1.5549575
702,7.019999999999895,-1.1295171,0.7013824,-0.04896627,0.17195857,-4.9380817,-0.8023715
703,7.0299999999998946,-0.95188487,0.6693683,-0.050185855,-0.16752979,-5.0098586,-0.06291912
704,7.039999999999894,-0.95188487,0.6693683,-0.050185855,-0.8078693,-4.797583,0.8582657
705,7.049999999999894,-0.37032646,0.24666072,-0.29745638,-0.8078693,-4.797583,0.8582657
706,7.059999999999894,-0.14208147,0.096591,-0.4170975,-0.8078693,-4.797583,0.8582657
707,7.069999999999894,0.057381395,0.016525354,-0.38099784,-2.8382328,-3.0159945,1.7470746
708,7.0799999999998935,0.12281204,-0.007378479,-0.22848894,-2.8382328,-3.0159945,1.7470746
709,7.089999999999893,0.14061797,-0.021159772,-6.0979168e-05,-3.3151658,-2.908024,1.7008016
710,7.099999999999893,0.13183697,-0.033233646,0.05847902,-3.5326338,-2.876717,1.5549575
711,7.109999999999893,0.08073642,-0.07537025,0.22708642,-3.2905784,-2.094046,1.4492778
712,7.119999999999893,0.007256521,-0.10329871,0.4786255,-2.778826,-0.7165449,1.3684908
713,7.129999999999892,-0.032014064,-0.13421515,0.6213777,-2.079996,0.39721513,1.2741122
714,7.139999999999892,-0.070613876,-0.1167751,0.6749174,-0.40866885,2.0169244,0.76052725
715,7.149999999999892,-0.21245141,-0.15976542,0.45228252,0.22311853,2.7027733,0.52931476
716,7.159999999999892,-0.21245141,-0.15976542,0.45228252,0.22311853,2.7027733,0.52931476
717,7.169999999999892,-0.31629896,-0.19007207,0.32245782,0.5288566,3.1845932,0.63194007
718,7.179999999999891,-0.98127675,-1.3806293,-4.2025013,-1.8365663,2.747061,2.012343
719,7.189999999999891,-0.9085896,-1.9152336,-3.8862634,-5.8901153,0.38927388,3.0130928
720,7.199999999999891,-1.1714097,-1.8156546,0.22909874,-9.124036,-0.16783522,4.7847548
721,7.209999999999891,-1.1714097,-1.8156546,0.22909874,-9.124036,-0.16783522,4.7847548
722,7.2199999999998905,-1.3828245,-5.147373,-1.6476572,-8.021119,4.674799,6.11751
723,7.22999999999989,-1.2562928,-5.213841,-0.14854525,1.6462818,8.228202,7.1083336
724,7.23999999999989,-1.2562928,-5.213841,-0.14854525,1.6462818,8.228202,7.1083336
725,7.24999999999989,0.22720838,-4.6099644,0.20245083,3.9710822,13.265397,5.39562
726,7.25999999999989,0.24483135,-4.5611806,-0.42612243,3.2976034,15.773304,0.8362745
727,7.269999999999889,0.43228132,-3.726132,-0.4145364,3.1471777,13.653907,-0.39278635
728,7.279999999999889,0.43228132,-3.726132,-0.4145364,2.8041768,11.422722,-1.2458596
729,7.289999999999889,0.49624845,-2.765954,0.23507468,2.5940392,10.347294,-2.0233383
730,7.299999999999889,0.37746105,-2.2339718,0.24635585,2.5192082,7.9832454,-3.9017491
731,7.309999999999889,0.37746105,-2.2339718,0.24635585,2.5192082,7.9832454,-3.9017491
732,7.319999999999888,0.08848077,-1.343188,0.005914979,2.2368357,6.415612,-3.8382192
733,7.329999999999888,0.08848077,-1.343188,0.005914979,1.7114917,5.248554,-3.3939674
734,7.339999999999888,-0.014939896,-0.743397,0.0009146876,1.2629639,4.4700065,-2.9752192
735,7.349999999999888,0.018781584,-0.55600804,0.023294043,-0.13133603,2.2067506,-1.4417948
736,7.3599999999998875,0.036892395,-0.40868238,0.029026084,-0.6301075,1.1658363,-0.8790351
737,7.369999999999887,0.036892395,-0.40868238,0.029026084,-0.6301075,1.1658363,-0.8790351
738,7.379999999999887,0.11207971,-0.22147635,0.050856624,-0.9961685,0.24236079,-0.56077427
739,7.389999999999887,0.10317675,-0.023720896,0.0453685,-1.1363621,-0.22831088,-0.48502702
740,7.399999999999887,0.061893854,0.03207504,0.044758707,-1.5476271,-0.839787,-0.3555236
741,7.4099999999998865,0.027379647,0.057320416,0.06799178,-1.626276,-0.86452705,-0.28496864
742,7.419999999999886,0.03561183,0.14086188,0.12311694,-1.5885551,-0.91415983,-0.17073683
743,7.429999999999886,0.04006331,0.1853157,0.14159364,-1.5123496,-1.0196868,-0.08903361
744,7.439999999999886,0.024086772,0.1999507,0.16952209,-1.3775011,-1.1200215,0.032070424
745,7.449999999999886,0.024086772,0.1999507,0.16952209,-1.1856894,-1.1612549,0.18402316
746,7.459999999999885,0.027562585,0.22281788,0.30184686,-0.9381363,-1.2840388,0.32055154
747,7.469999999999885,0.032684833,0.19354787,0.29349273,-0.6785186,-1.529912,0.4370741
748,7.479999999999885,0.0075004376,0.12183637,0.16689998,-0.40561453,-1.9393444,0.5945246
749,7.489999999999885,0.0075004376,0.12183637,0.16689998,-0.26236662,-2.228589,0.7838928
750,7.4999999999998845,0.021159772,0.13055639,0.1094576,-0.19318613,-2.4010057,1.1262828
751,7.509999999999884,0.027623562,0.13293459,0.096347086,-0.19776763,-2.392301,1.2644911
752,7.519999999999884,0.027623562,0.13293459,0.096347086,-0.19776763,-2.392301,1.2644911
753,7.529999999999884,0.027623562,0.13293459,0.096347086,-0.19776763,-2.392301,1.2644911
754,7.539999999999884,0.044880666,0.15000875,0.0670161,-0.23243423,-2.3612995,1.6873626
755,7.5499999999998835,0.07268717,0.1214705,0.0837244,-0.21991149,-2.4121542,1.9152153
756,7.559999999999883,0.093664,0.10799411,0.08902958,-0.17333302,-2.4397957,1.9608774
757,7.569999999999883,0.11360419,0.093054205,0.10061563,-0.17333302,-2.4397957,1.9608774
758,7.579999999999883,0.14561825,0.08354146,0.12195834,0.09101892,-2.5248587,1.8968893
759,7.589999999999883,0.15933856,0.08555377,0.11573846,0.20662516,-2.5474608,1.8330538
760,7.599999999999882,0.17927876,0.093481064,0.11586042,0.45081854,-2.5143213,1.7290541
761,7.609999999999882,0.1823277,0.09738373,0.102688916,0.68432176,-2.3507621,1.5940529
762,7.619999999999882,0.18312044,0.08512692,0.076528855,0.8530733,-2.2046127,1.4563028
763,7.629999999999882,0.17452239,0.08256579,0.05847902,1.0239629,-1.9573649,1.2409728
764,7.6399999999998816,0.17177832,0.08299265,0.04036821,1.0934488,-1.8399261,1.1418599
765,7.649999999999881,0.043539125,-0.0006707709,-0.54808074,1.2153164,-1.3161092,0.7820602
766,7.659999999999881,0.043539125,-0.0006707709,-0.54808074,1.1517864,-0.86269444,0.56688297
767,7.669999999999881,-0.38666892,-0.61345047,-3.0754235,-1.9529362,2.7577512,0.75640386
768,7.679999999999881,0.59149796,-0.9004184,-1.5996665,-5.59858,5.774204,0.8176431
769,7.6899999999998805,0.9192609,-2.0123127,-3.0315185,-7.2034755,6.277557,0.593761
770,7.69999999999988,0.9192609,-2.0123127,-3.0315185,-11.385918,9.968863,-1.8541287
771,7.70999999999988,1.1764101,-5.2798815,-7.490071,-6.067419,12.035267,-3.0170634
772,7.71999999999988,0.08835881,-2.4310565,1.9120018,1.9610301,2.801886,-1.604743
773,7.72999999999988,-0.037868064,-1.6318635,1.5276501,1.9610301,2.801886,-1.604743
774,7.739999999999879,0.066040434,-1.232084,0.63393945,6.2028785,-4.5934014,0.1516473
775,7.749999999999879,0.10348164,-1.38752,0.286846,6.9925747,-5.875302,0.63423085
776,7.759999999999879,1.0657939,-3.889861,-0.2502585,7.3135843,-7.435757,1.4072808
777,7.769999999999879,1.413741,-4.834855,-0.46856394,7.6509347,-5.7709966,2.2795963
778,7.779999999999879,1.4611828,-5.395132,-0.3456909,7.2686853,-4.354706,2.5100453
779,7.789999999999878,1.2649518,-5.7537503,-0.09957898,5.3841662,-2.4150558,3.1936035
780,7.799999999999878,1.2649518,-5.7537503,-0.09957898,3.3165402,-0.8713993,3.4628425
781,7.809999999999878,0.8139499,-3.1360366,-0.4233174,2.2715025,-0.6178902,2.7261388
782,7.819999999999878,0.49911448,-2.104574,-0.50448066,1.9320141,-1.8600847,1.2757921
783,7.8299999999998775,0.33416584,-1.4790497,-0.26330805,1.970804,-2.3011293,0.86299986
784,7.839999999999877,0.15360652,-0.91907805,-0.0863465,2.133447,-2.7102563,-0.00030543262
785,7.849999999999877,0.071772486,-0.7099805,-0.06488183,2.1832323,-2.1981986,-0.5881105
786,7.859999999999877,0.0127446465,-0.23702602,-0.04744179,2.1832323,-2.1981986,-0.5881105
787,7.869999999999877,0.0127446465,-0.23702602,-0.04744179,2.2142339,-1.7163786,-0.86758137
788,7.879999999999876,0.023050126,-0.12110463,-0.076528855,2.2834144,-1.46852,-1.0749701
789,7.889999999999876,-0.120372884,0.026099084,-0.2532465,2.1383338,-2.5798366,-1.6255124
790,7.899999999999876,-0.120372884,0.026099084,-0.2532465,2.0270035,-2.9051223,-1.6346754
791,7.909999999999876,-0.26300314,-0.03305071,-0.03420931,2.0018053,-2.8893926,-1.5578591
792,7.919999999999876,-0.2678205,-0.0071345624,-0.010183521,2.0018053,-2.8893926,-1.5578591
793,7.929999999999875,-0.42819571,-0.023720896,0.00060979166,1.9917262,-2.769663,-1.4530957
794,7.939999999999875,-0.74455565,0.042136606,0.013659334,2.0748038,-2.2557726,-1.0485502
795,7.949999999999875,-1.1191506,0.14610608,0.026160065,2.140472,-2.0743456,-0.7724391
796,7.959999999999875,-1.7156489,0.63076854,0.020123126,2.233018,-2.02624,-0.11636983
797,7.9699999999998745,-1.7288814,0.82949966,-0.14086188,2.3270912,-2.1273382,0.45478916
798,7.979999999999874,-1.4097774,1.0310968,-0.34672755,1.8984165,-3.4625368,0.7290677
799,7.989999999999874,-1.1544576,0.89279604,-0.35172784,1.4669929,-4.130671,0.6068946
800,7.999999999999874,-1.1544576,0.89279604,-0.35172784,0.8339838,-4.429842,0.7264715
801,8.009999999999874,-1.1544576,0.89279604,-0.35172784,0.8339838,-4.429842,0.7264715
802,8.019999999999873,-0.64162284,0.4480749,-0.1905599,-0.0571159,-2.4324653,0.7150178
803,8.029999999999873,-0.09793254,0.17251006,-0.09402988,-0.593761,-0.98853266,0.53801954
804,8.039999999999873,-0.073723815,0.16049717,-0.07122366,-0.75991637,-0.5198463,0.4616614
805,8.049999999999873,-0.05646671,0.13055639,-0.020489,-1.1091785,0.6554584,0.21120666
806,8.059999999999873,-0.069577225,0.13598356,0.01683025,-1.1548407,1.0884092,0.12965615
807,8.069999999999872,-0.13866661,0.14799644,0.097871564,-1.0694723,1.3231341,0.08399397
808,8.079999999999872,-0.2183664,0.12573905,0.13732508,-0.95646226,1.2568552,0.106901415
809,8.089999999999872,-0.21287827,0.123604774,0.07500438,-0.691194,0.7631234,0.23915374
810,8.099999999999872,-0.1255561,0.06982114,0.0029879792,-0.6047566,-0.0036651916,0.47769663
811,8.109999999999872,-0.1255561,0.06982114,0.0029879792,-0.6047566,-0.0036651916,0.47769663
812,8.119999999999871,-0.05713748,-0.04981998,-0.19415767,-0.94974273,-0.1423316,0.5873469
813,8.129999999999871,-0.07469948,-0.36544815,-0.8449273,-1.781283,-0.7903069,0.70280045
814,8.139999999999871,-0.109762505,-0.9084677,-1.5622863,-3.929849,-2.620001,1.0522153
815,8.14999999999987,-0.20659742,-0.643879,-0.6449767,-5.5859046,-3.9551997,1.534188
816,8.15999999999987,-0.46929568,-0.6066208,0.0687845,-6.298326,-3.0676126,2.1757493
817,8.16999999999987,-0.8613918,-0.9724348,0.41435343,-6.262896,-0.699288,3.0531044
818,8.17999999999987,-1.2237909,-1.5127102,0.2628812,-6.19509,1.389413,3.783852
819,8.18999999999987,-1.5852754,-4.1549983,0.5485686,-6.19509,1.389413,3.783852
820,8.19999999999987,-1.8567547,-6.2798786,1.0787824,-6.425844,10.673801,4.26781
821,8.20999999999987,-1.8567547,-6.2798786,1.0787824,-6.425844,10.673801,4.26781
822,8.21999999999987,-1.9155996,-9.324325,1.5108198,3.1597004,2.5347853,3.808745
823,8.229999999999869,-0.20312162,-8.754596,-1.1236632,3.1597004,2.5347853,3.808745
824,8.239999999999869,0.41850004,-7.079864,-0.9065772,4.2719336,9.118538,-3.0560062
825,8.249999999999869,0.6232071,-4.7607656,-0.02128173,4.0909643,8.239198,-4.2562037
826,8.259999999999868,0.4575877,-1.6799761,-0.6957723,3.819435,6.7457848,-5.084842
827,8.269999999999868,0.4575877,-1.6799761,-0.6957723,2.5332582,4.649906,-5.494122
828,8.279999999999868,-0.0009146876,-1.0854292,-0.2783699,0.21074851,2.6726882,-4.594165
829,8.289999999999868,-0.066894144,-0.8015102,-0.087566085,-0.3857614,2.4981334,-3.7665951
830,8.299999999999867,-0.033111688,-0.5371045,-0.06366225,-0.3857614,2.4981334,-3.7665951
831,8.309999999999867,0.0046344167,-0.3574599,-0.04164877,-0.94989544,2.447279,-2.7421741
832,8.319999999999867,0.052746978,-0.22641563,-0.009634708,-1.5674802,2.2133174,-1.5804611
833,8.329999999999867,0.08378538,-0.06683317,0.009695687,-1.5674802,2.2133174,-1.5804611
834,8.339999999999867,0.084456146,-0.028782167,0.01603752,-1.7605137,2.0993912,-1.1151345
835,8.349999999999866,0.03640456,0.09183463,0.023781875,-1.7310394,1.9046779,-0.8756753
836,8.359999999999866,0.013537374,0.09799352,0.018659625,-1.6902641,1.7513506,-0.7144069
837,8.369999999999866,0.013537374,0.09799352,0.018659625,-1.6902641,1.7513506,-0.7144069
838,8.379999999999866,0.013537374,0.09799352,0.018659625,-1.6902641,1.7513506,-0.7144069
839,8.389999999999866,0.0014635,0.12659276,-0.009146876,-1.728596,1.6754507,0.063682705
840,8.399999999999865,0.001097625,0.11146992,-0.012378771,-1.7695239,1.7620409,0.24037547
841,8.409999999999865,-0.0037807084,0.10848194,-0.011890938,-1.8107573,1.9049833,0.40469822
842,8.419999999999865,-0.0012195833,0.09683492,-0.017074168,-1.8107573,1.9049833,0.40469822
843,8.429999999999865,-0.0037807084,0.081773065,0.005488125,-2.0360138,2.4275784,0.73639804
844,8.439999999999864,0.043356188,0.15391143,0.06988213,-2.0118847,2.209805,1.0897835
845,8.449999999999864,0.043356188,0.15391143,0.06988213,-2.0118847,2.209805,1.0897835
846,8.459999999999864,0.064637914,0.17208321,0.07817529,-1.9633209,1.9419407,1.2869403
847,8.469999999999864,0.08384635,0.08622454,0.15885073,-1.8903224,1.536326,1.4834863
848,8.479999999999864,0.08384635,0.08622454,0.15885073,-1.7673858,0.8575021,1.6865989
849,8.489999999999863,0.08384635,0.08622454,0.15885073,-1.7673858,0.8575021,1.6865989
850,8.499999999999863,0.1800105,0.15293576,0.2555027,-0.9634872,-1.859932,2.0392208
851,8.509999999999863,0.1800105,0.15293576,0.2555027,-0.9634872,-1.859932,2.0392208
852,8.519999999999863,0.20775603,0.17501022,0.2423312,-0.19440787,-3.4698672,2.0983222
853,8.529999999999863,0.23836756,0.20245083,0.2374529,0.2489276,-4.070195,2.047315
854,8.539999999999862,0.254649,0.207817,0.21171968,0.5910121,-4.36845,1.9639318
855,8.549999999999862,0.26775953,0.19562118,0.17836407,0.991587,-4.5407143,1.7884607
856,8.559999999999862,0.26775953,0.19562118,0.17836407,0.991587,-4.5407143,1.7884607
857,8.569999999999862,0.24044085,0.18409611,0.1348859,1.5890132,-4.4704647,1.3417655
858,8.579999999999862,0.2160492,0.1764737,0.09183463,1.7386752,-4.3244677,1.1050552
859,8.589999999999861,0.16061912,0.16964404,0.03237994,1.9230038,-4.012774,0.8098546
860,8.599999999999861,0.009024917,0.14860623,-0.15013072,1.9532416,-3.6430476,0.59681535
861,8.60999999999986,-2.2289107,-1.012986,-3.416419,-0.37491855,0.64675355,1.808772
862,8.61999999999986,-0.6902842,-0.9955459,-1.7565659,-5.228243,8.0264635,3.4249687
863,8.62999999999986,0.27788207,-0.3743511,-0.21318316,-5.537188,8.478352,3.2976034
864,8.63999999999986,0.27788207,-0.3743511,-0.21318316,-4.552626,7.920937,1.1542299
865,8.64999999999986,0.6466841,-2.3090372,-5.3234205,-8.606175,11.189524,-0.56199604
866,8.65999999999986,0.8106571,-2.2054336,-1.2412919,-12.814731,11.853077,-2.5584564
867,8.66999999999986,0.9509702,-5.3265915,-9.113581,-14.494152,9.553169,-4.5598035
868,8.67999999999986,1.1583602,-4.4923964,-2.5566125,1.2991576,7.547851,-4.191452
869,8.68999999999986,-0.10653061,-1.5595422,0.97981334,5.924935,-0.50671273,-2.4836254
870,8.699999999999859,-0.037746105,-1.2885509,0.7125416,7.3146534,-6.0611577,-0.7808385
871,8.709999999999859,1.009815,-2.765649,-0.04481969,6.887811,-7.11826,0.06001751
872,8.719999999999859,1.3370292,-4.8192444,-0.60790133,5.9664736,-8.235533,1.1389582
873,8.729999999999858,1.7568707,-5.0454164,-0.9795693,5.9664736,-8.235533,1.1389582
874,8.739999999999858,1.6289365,-5.081516,-0.2918463,3.8111882,-2.755766,3.8799107
875,8.749999999999858,1.1678121,-4.2246976,0.13598356,3.6215146,-1.5323554,4.118301
876,8.759999999999858,0.6771127,-3.0250547,0.23763582,3.6215146,-1.5323554,4.118301
877,8.769999999999857,0.6771127,-3.0250547,0.23763582,3.4283285,-0.33368513,4.1512876
878,8.779999999999857,0.23690407,-1.3989841,-0.03866079,3.1345022,0.7663304,3.9577959
879,8.789999999999857,0.12580003,-0.8496837,0.022135438,3.1128166,0.74021596,3.719253
880,8.799999999999857,0.0757971,-0.5807656,0.091956586,3.1994066,0.7319693,3.5876117
881,8.809999999999857,0.026891813,-0.30879852,-0.2534904,3.280499,0.38545597,3.3583844
882,8.819999999999856,0.006341833,-0.15336262,-0.6844302,3.1117475,-0.6411031,3.1878002
883,8.829999999999856,-0.005854,0.024086772,-1.0902466,2.3283129,-3.6760342,2.8846583
884,8.839999999999856,-0.04408794,0.043051295,-0.73028654,1.3800973,-6.3664374,2.6731462
885,8.849999999999856,-0.047990605,0.011890938,-0.11982407,1.1368202,-7.159188,2.5685356
886,8.859999999999856,-0.037136313,0.0026830835,0.023659917,1.3414601,-6.916369,2.4648414
887,8.869999999999855,0.0012805625,0.10476221,0.018903542,1.5911512,-6.558707,2.2177463
888,8.879999999999855,0.07085779,0.09921311,-0.01689123,1.7887661,-5.9715133,0.7669413
889,8.889999999999855,0.07573613,0.09683492,-0.014817937,1.7887661,-5.9715133,0.7669413
890,8.899999999999855,0.11317733,0.12561709,-0.07036996,0.8801041,-4.2496367,-1.2901474
891,8.909999999999854,0.11317733,0.12561709,-0.07036996,0.4558582,-3.6042576,-2.0809124
892,8.919999999999854,0.093481064,0.15171617,-0.070065066,-0.081397794,-2.9060388,-3.0744848
893,8.929999999999854,0.093481064,0.15171617,-0.070065066,-0.081397794,-2.9060388,-3.0744848
894,8.939999999999854,-0.06799178,0.14275223,0.002134271,-1.0835222,-0.8323039,-4.5034513
895,8.949999999999854,-0.099457026,0.117689796,-0.0017683958,-1.509448,0.31520647,-5.002681
896,8.959999999999853,-0.099457026,0.117689796,-0.0017683958,-1.9234619,1.5018122,-5.531385
897,8.969999999999853,-0.099457026,0.117689796,-0.0017683958,-1.9234619,1.5018122,-5.531385
898,8.979999999999853,-0.74120176,0.072016396,0.054759294,-2.2565362,2.5523477,-5.2429037
899,8.989999999999853,-1.205985,0.08335852,0.06945527,-2.3600779,2.8060095,-4.2084036
900,8.999999999999853,-1.3370292,0.11622629,0.09354204,-2.4007003,2.7302623,-3.245527
901,9.009999999999852,-1.4339862,0.20104831,0.1393374,-2.4281893,2.2221751,-1.8723019
902,9.019999999999852,-1.2782453,0.23178181,0.14586218,-2.435978,1.4514158,-0.60048056
903,9.029999999999852,-1.0282307,0.18744996,0.12159246,-2.4278839,0.9457721,-0.056352317
904,9.039999999999852,-0.5878392,0.107201375,0.10018878,-2.2583687,-0.15454891,0.46792278
905,9.049999999999851,-0.35550857,0.038965687,0.10823802,-2.2583687,-0.15454891,0.46792278
906,9.059999999999851,-0.33501956,-0.06305246,0.16964404,-1.9434677,-0.5896377,0.39828414
907,9.069999999999851,-0.33501956,-0.06305246,0.16964404,-1.9434677,-0.5896377,0.39828414
908,9.07999999999985,-0.47344226,-0.13342242,0.21153674,-1.4340062,-0.6737844,0.7284568
909,9.08999999999985,-0.43478146,-0.22324473,0.101408355,-1.2574661,-0.79213953,0.84391034
910,9.09999999999985,-0.5012488,-0.27885774,0.052198168,-1.1122329,-0.8226828,0.98929626
911,9.10999999999985,-0.72918886,-0.41441444,0.017013188,-0.9990701,-0.59696805,1.2299771
912,9.11999999999985,-0.91499245,-0.49954134,-0.024757542,-0.93309665,-0.3239113,1.5351044
913,9.12999999999985,-0.91499245,-0.49954134,-0.024757542,-1.0929906,0.3631594,2.8196013
914,9.13999999999985,0.45264837,-4.8313794,-7.2703633,-5.399438,-7.6833105,3.6280813
915,9.14999999999985,-2.967917,-4.3176303,-0.2157443,-8.939249,-14.2556095,5.050634
916,9.15999999999985,-2.7293665,-6.2384734,0.6197313,-5.6392026,-12.312753,7.096727
917,9.169999999999849,-1.9257832,-7.1698084,0.16263144,0.6953174,-15.848288,6.045275
918,9.179999999999849,0.39532796,-7.956745,-4.616611,2.2197316,-1.3715452,0.22953261
919,9.189999999999849,-1.4623414,-5.2971992,1.4234368,4.0743184,9.15519,-0.7476991
920,9.199999999999848,-0.4422209,-3.7316203,0.58796114,6.8836875,12.127661,-0.14156802
921,9.209999999999848,0.09085896,-2.7786987,0.079638794,7.286095,13.087025,-0.23839016
922,9.219999999999848,0.22617173,-2.3736143,-0.1413497,7.039764,12.948358,-0.45341474
923,9.229999999999848,0.52448183,-1.7217468,-1.2276936,5.778327,10.442284,-1.0016663
924,9.239999999999847,-0.024818521,-1.0373776,-0.45606318,3.733761,6.1526346,-1.6464345
925,9.249999999999847,-0.024818521,-1.0373776,-0.45606318,2.238821,3.8041632,-1.8333594
926,9.259999999999847,-0.07829725,-0.77724046,-0.084578104,1.5322027,2.9491048,-1.7866281
927,9.269999999999847,0.027379647,-0.339593,0.012927583,0.5216789,1.8054122,-1.5766432
928,9.279999999999847,0.061954834,-0.16427788,0.058418043,0.30818152,1.3526083,-1.5395331
929,9.289999999999846,0.061954834,-0.16427788,0.058418043,0.20051652,0.8355109,-1.5172366
930,9.299999999999846,0.069760166,-0.05689356,0.089822315,0.17745635,0.4888449,-1.5221235
931,9.309999999999846,0.0807974,-0.0066467295,0.07957781,0.17745635,0.4888449,-1.5221235
932,9.319999999999846,0.07506536,0.028477272,0.098054506,0.109650314,-0.06337727,-1.5435038
933,9.329999999999846,0.062015813,0.042624436,0.12506826,0.12705997,-0.09254608,-1.5566374
934,9.339999999999845,0.063967146,0.06158896,0.11171384,0.11866058,0.023365596,-1.5413657
935,9.349999999999845,0.04164877,0.05933273,0.054942228,0.06001751,0.13775012,-1.5054774
936,9.359999999999845,0.04164877,0.05933273,0.054942228,0.06001751,0.13775012,-1.5054774
937,9.369999999999845,0.03603869,0.060186442,0.031038398,-0.087964594,0.21380283,-1.4259121
938,9.379999999999844,0.035550855,0.07524829,0.020123126,-0.17913623,0.24510968,-1.3764321
939,9.389999999999844,0.019269416,0.09079798,0.03146525,-0.4775439,0.3387248,-1.1695015
940,9.399999999999844,0.01835473,0.10598179,0.065369666,-0.6395759,0.41599923,-1.0167851
941,9.409999999999844,0.008354146,0.11476279,0.08610259,-0.7509061,0.45952338,-0.8732319
942,9.419999999999844,0.006524771,0.12366576,0.12153149,-0.7509061,0.45952338,-0.8732319
943,9.429999999999843,0.0046344167,0.13543473,0.1574482,-0.88086766,0.44593164,-0.42012256
944,9.439999999999843,0.0046344167,0.13543473,0.1574482,-0.88086766,0.44593164,-0.42012256
945,9.449999999999843,0.0046344167,0.13543473,0.1574482,-0.88086766,0.44593164,-0.42012256
946,9.459999999999843,0.013598354,0.12647079,0.23757485,-0.5708536,-0.32834008,0.35323283
947,9.469999999999843,0.014635001,0.10104248,0.19988972,-0.45188758,-0.5128214,0.5590944
948,9.479999999999842,0.02853825,0.08549279,0.18074225,-0.15470162,-0.787558,0.81290895
949,9.489999999999842,0.039392542,0.08872469,0.11695804,-0.05787948,-0.8417723,0.8712466
950,9.499999999999842,0.039392542,0.08872469,0.11695804,-0.05787948,-0.8417723,0.8712466
951,9.509999999999842,0.044880666,0.098420374,0.096895896,0.0346666,-0.8228355,0.9315695
952,9.519999999999841,0.06262561,0.12573905,0.06555261,0.098807454,-0.61483586,0.9947941
953,9.529999999999841,0.0837244,0.13750802,0.042746395,-0.00015271631,-0.31031954,0.9819659
954,9.539999999999841,0.06597946,0.2001946,0.02134271,-0.00015271631,-0.31031954,0.9819659
955,9.54999999999984,0.05945469,0.25227082,0.012805625,-0.1459968,-0.10751228,0.9459248
956,9.55999999999984,0.06860156,0.25044146,0.02561125,-0.6030767,-0.05421429,0.89751375
957,9.56999999999984,0.08805392,0.2403189,0.033721477,-0.82527894,-0.20357084,0.7414377
958,9.57999999999984,0.08829784,0.18190086,0.043722063,-1.0241156,-0.44318274,0.513585
959,9.58999999999984,0.014695979,0.10927467,0.33916613,-1.0331259,-0.009162978,0.22296582
960,9.59999999999984,-0.0037807084,0.0807974,0.2973954,-0.91415983,1.2447907,0.03268129
961,9.60999999999984,-0.0,-0.0017074167,0.26092985,-0.79381937,2.2828035,-0.12507465
962,9.61999999999984,0.033172667,-0.56503296,-0.8379757,-0.76923203,2.8270843,-0.23716843
963,9.62999999999984,0.71918833,-4.8918095,-2.8665698,-18.890244,-2.59465,0.36453384
964,9.639999999999839,1.8290701,-4.192867,-4.3288503,-16.826588,-2.2721133,0.020158553
965,9.649999999999839,1.8290701,-4.192867,-4.3288503,-11.744495,1.4256067,-0.57711494
966,9.659999999999838,1.1376883,-4.591914,-8.968633,-0.41065416,17.687298,-2.038152
967,9.669999999999838,0.02713573,-1.0217669,1.0904905,7.2981596,7.038084,-0.8801041
968,9.679999999999838,0.22379355,-1.3948375,0.05372265,7.2981596,7.038084,-0.8801041
969,9.689999999999838,0.7235788,-2.4752054,0.6368055,8.309447,3.3509014,-0.14538592
970,9.699999999999838,0.68674743,-3.8098567,1.0714649,8.96567,-5.627749,0.36178493
971,9.709999999999837,0.68674743,-3.8098567,1.0714649,8.96567,-5.627749,0.36178493
972,9.719999999999837,0.34617874,-4.836014,0.8823075,7.1335316,-9.939847,0.90133166
973,9.729999999999837,0.27641857,-4.864308,1.0047538,3.438713,-6.9262958,2.4486532
974,9.739999999999837,0.2531855,-3.79638,0.9412134,1.7140878,-4.1114287,3.3315063
975,9.749999999999837,0.20513393,-2.748209,0.8332803,1.1748465,-2.2391264,3.845244
976,9.759999999999836,0.077077664,-1.8229722,0.55600804,1.12781,-0.8437576,4.205044
977,9.769999999999836,0.016708292,-0.9728007,0.26971084,1.3550519,0.4008803,4.5646906
978,9.779999999999836,0.056344748,-0.64168376,0.120738745,1.5410603,0.68768156,4.6466994
979,9.789999999999836,0.06793079,-0.42807376,0.0071345624,1.6421585,0.7799222,4.6028695
980,9.799999999999836,0.3286777,-0.043478146,-2.1070132,1.3547463,0.08689558,4.3898306
981,9.809999999999835,0.31129867,0.10342067,-2.1650043,-1.0114402,-6.9780664,3.7358992
982,9.819999999999835,0.034148335,-0.059027832,-0.3530084,-1.7046194,-10.291858,3.4480288
983,9.829999999999835,0.025977125,0.00085370836,0.10037171,-1.2799155,-10.028116,3.365104
984,9.839999999999835,0.11829959,0.10951859,0.0629305,-0.016187929,-8.370229,2.3350325
985,9.849999999999834,0.11829959,0.10951859,0.0629305,-0.016187929,-8.370229,2.3350325
986,9.859999999999834,0.04853942,0.2965417,-0.1413497,0.15821409,-7.809454,0.48899764
987,9.869999999999834,0.04853942,0.2965417,-0.1413497,0.15821409,-7.809454,0.48899764
988,9.879999999999834,-0.023355022,0.5024074,-0.38825434,0.016187929,-7.520515,-0.21380283
989,9.889999999999834,-0.14439867,0.5683259,-0.41319484,-1.8391626,-5.56315,-2.1044307
990,9.899999999999833,-0.14317909,0.4074628,0.15360652,-1.8391626,-5.56315,-2.1044307
991,9.909999999999833,-0.19915795,0.4281347,0.18348631,-1.3051136,-2.731331,-2.6717718
992,9.919999999999833,-0.19915795,0.4281347,0.18348631,-1.3051136,-2.731331,-2.6717718
993,9.929999999999833,-0.19915795,0.4281347,0.18348631,-1.3051136,-2.731331,-2.6717718
994,9.939999999999833,-0.33270234,0.50191957,0.18659624,-0.08827003,0.70112056,-2.8422034
995,9.949999999999832,-0.3691069,0.50746864,0.16958307,0.12293663,0.73426,-2.758973
996,9.959999999999832,-0.45045313,0.5246038,0.20220692,0.24510968,0.11530081,-2.5367706
997,9.969999999999832,-0.462466,0.49868765,0.1999507,0.258396,-0.45677447,-2.3715315
998,9.979999999999832,-0.4672224,0.4709421,0.20659742,0.20219639,-1.4062119,-1.9949331
999,9.989999999999831,-0.42782986,0.36544815,0.2277572,0.10476339,-1.8968893,-1.6632334
1000,9.999999999999831,-0.36038688,0.237087,0.18421806,-0.049632803,-2.080607,-1.426065
