id,timestamp,acc_x,acc_y,acc_z,gyro_x,gyro_y,gyro_z
0,0,-0.045917314,-0.49307755,-0.92877364,0.026419923,0.48624873,0.41141775
1,0.01,-0.053112853,-0.49948034,-0.9360912,-0.09621128,0.33414328,0.40515637
2,0.02,-0.06347931,-0.49313855,-0.9260297,-0.16508633,0.22495113,0.3904956
3,0.03,-0.08463909,-0.47960114,-0.91328496,-0.20219639,0.13805555,0.36850446
4,0.04,-0.08463909,-0.47960114,-0.91328496,-0.20219639,0.13805555,0.36850446
5,0.05,-0.115250625,-0.43734258,-0.8970645,-0.28023443,0.008093964,0.2695443
6,0.060000000000000005,-0.14037405,-0.42282957,-0.88334423,-0.31047225,-0.016646078,0.2180789
7,0.07,-0.16885132,-0.41904885,-0.8612698,-0.33551773,-0.0571159,0.17027868
8,0.08,-0.16885132,-0.41904885,-0.8612698,-0.34025195,-0.07803804,0.15210545
9,0.09,-0.24251415,-0.43825728,-0.7944976,-0.30558532,-0.10338894,0.14263703
10,0.09999999999999999,-0.26166162,-0.46557596,-0.7651056,-0.25671613,-0.094531395,0.15027285
11,0.10999999999999999,-0.27001578,-0.4952728,-0.7394943,-0.1826487,-0.037873644,0.18096884
12,0.11999999999999998,-0.2860533,-0.5216768,-0.72912794,-0.10369437,0.018784106,0.22036964
13,0.12999999999999998,-0.27184513,-0.5317993,-0.72784734,0.059253927,0.12614368,0.2932153
14,0.13999999999999999,-0.22300081,-0.5374094,-0.7390065,0.059253927,0.12614368,0.2932153
15,0.15,-0.17190027,-0.5216768,-0.78986317,0.11789699,0.1459968,0.2751948
16,0.16,-0.1536675,-0.47283247,-0.9384084,0.084910266,0.039553523,0.20311269
17,0.17,-0.1536675,-0.47283247,-0.9384084,0.084910266,0.039553523,0.20311269
18,0.18000000000000002,-0.1806203,-0.42252466,-1.0031683,0.0061086523,-0.022143865,0.15515977
19,0.19000000000000003,-0.1806203,-0.42252466,-1.0031683,0.0061086523,-0.022143865,0.15515977
20,0.20000000000000004,-0.15872878,-0.4534411,-0.97670335,0.0061086523,-0.022143865,0.15515977
21,0.21000000000000005,-0.25696623,-0.42221975,-0.9235295,-0.23136522,-0.22036964,-0.03145956
22,0.22000000000000006,-0.28147984,-0.45295325,-0.89072275,-0.23136522,-0.22036964,-0.03145956
23,0.23000000000000007,-0.28147984,-0.45295325,-0.89072275,-0.16752979,-0.093004234,-0.03023783
24,0.24000000000000007,-0.2625763,-0.4985657,-0.8495008,-0.12110403,-0.06352998,-0.034972034
25,0.25000000000000006,-0.22818404,-0.5130178,-0.86852634,-0.008093964,-0.072540246,-0.071013086
26,0.26000000000000006,-0.21507353,-0.5121031,-0.9156632,0.0290161,-0.09315695,-0.11102476
27,0.2700000000000001,-0.21507353,-0.5121031,-0.9156632,0.018325957,-0.111635625,-0.1525636
28,0.2800000000000001,-0.18812074,-0.5072857,-0.98121583,-0.025350908,-0.12660182,-0.19440787
29,0.2900000000000001,-0.18220575,-0.5116152,-0.9849965,-0.09010262,-0.13927728,-0.226631
30,0.3000000000000001,-0.19238928,-0.5037489,-0.9437745,-0.1779145,-0.17150041,-0.23319781
31,0.3100000000000001,-0.20074342,-0.49490693,-0.89377165,-0.20738874,-0.17898351,-0.21731532
32,0.3200000000000001,-0.19537725,-0.5019805,-0.84102464,-0.20738874,-0.17898351,-0.21731532
33,0.3300000000000001,-0.18482786,-0.5067369,-0.81846243,-0.18203785,-0.15561792,-0.1928807
34,0.34000000000000014,-0.18525472,-0.4803329,-0.79583913,-0.16249016,-0.13958271,-0.18661933
35,0.35000000000000014,-0.18525472,-0.4803329,-0.79583913,-0.13087788,-0.12721269,-0.18035796
36,0.36000000000000015,-0.1917185,-0.45941702,-0.78986317,-0.08307768,-0.1366811,-0.16539176
37,0.37000000000000016,-0.190255,-0.4486847,-0.79876614,-0.03924809,-0.14004086,-0.123547494
38,0.38000000000000017,-0.17836407,-0.41953668,-0.8355366,-0.047800206,-0.1375974,-0.107665
39,0.3900000000000002,-0.17836407,-0.41953668,-0.8355366,-0.047800206,-0.1375974,-0.107665
40,0.4000000000000002,-0.17982757,-0.42100018,-0.8335852,-0.07360926,-0.13652839,-0.09682214
41,0.4100000000000002,-0.2080609,-0.47124702,-0.8084008,-0.092240654,-0.12675454,-0.079870634
42,0.4200000000000002,-0.22489117,-0.48490632,-0.775716,-0.08674286,-0.08277224,-0.024892759
43,0.4300000000000002,-0.23580644,-0.48880902,-0.75437325,-0.08674286,-0.08277224,-0.024892759
44,0.4400000000000002,-0.23794071,-0.50380987,-0.72303,0.043676864,-0.034208454,0.022143865
45,0.45000000000000023,-0.22062263,-0.50771254,-0.74711674,0.1337795,0.020005837,0.049480084
46,0.46000000000000024,-0.19391376,-0.5052124,-0.79175353,0.16279559,0.04718934,0.076358154
47,0.47000000000000025,-0.16007032,-0.49582162,-0.81736475,0.14049901,0.048258353,0.11301007
48,0.48000000000000026,-0.1253122,-0.5010049,-0.8301094,0.091477074,0.02367103,0.14584407
49,0.49000000000000027,-0.1188484,-0.51807904,-0.83273154,0.0009162979,-0.019547688,0.18448131
50,0.5000000000000002,-0.14415476,-0.5323481,-0.82888985,-0.055436023,-0.034513887,0.21242839
51,0.5100000000000002,-0.17244908,-0.5417389,-0.8212674,-0.10094548,-0.03359759,0.24510968
52,0.5200000000000002,-0.19696271,-0.5452757,-0.80394936,-0.14172074,-0.027641652,0.29016098
53,0.5300000000000002,-0.20092636,-0.5447879,-0.7981563,-0.15775596,-0.03268129,0.3193298
54,0.5400000000000003,-0.19946286,-0.5350312,-0.8045591,-0.1611157,-0.08628472,0.3379612
55,0.5500000000000003,-0.21123183,-0.5186888,-0.854623,-0.1611157,-0.08628472,0.3379612
56,0.5600000000000003,-0.2189152,-0.5046636,-0.87681943,-0.1611157,-0.08628472,0.3379612
57,0.5700000000000003,-0.2189152,-0.5046636,-0.87681943,-0.19410244,-0.09514226,0.3378085
58,0.5800000000000003,-0.2455631,-0.4961265,-0.8976134,-0.1928807,-0.0926988,0.32803464
59,0.5900000000000003,-0.2675156,-0.48655275,-0.90334535,-0.1928807,-0.0926988,0.32803464
60,0.6000000000000003,-0.2675156,-0.48655275,-0.90334535,-0.1815797,-0.11942416,0.31230485
61,0.6100000000000003,-0.28416294,-0.4730154,-0.9012111,-0.17165314,-0.12308934,0.30008754
62,0.6200000000000003,-0.29898086,-0.44728217,-0.8973084,-0.17165314,-0.12308934,0.30008754
63,0.6300000000000003,-0.29898086,-0.44728217,-0.8973084,-0.15699236,-0.105832405,0.28787026
64,0.6400000000000003,-0.2980052,-0.42630538,-0.9097482,-0.14019357,-0.021685716,0.23747386
65,0.6500000000000004,-0.2973954,-0.42051232,-0.9259077,-0.15989397,0.028252518,0.18829921
66,0.6600000000000004,-0.2973954,-0.42051232,-0.9259077,-0.15989397,0.028252518,0.18829921
67,0.6700000000000004,-0.31892106,-0.436184,-0.90737003,-0.15989397,0.028252518,0.18829921
68,0.6800000000000004,-0.33026317,-0.44594067,-0.88694197,-0.21090123,0.03863723,0.09605856
69,0.6900000000000004,-0.32947046,-0.44148916,-0.8733436,-0.19486602,0.03756821,0.0852157
70,0.7000000000000004,-0.32910457,-0.43124464,-0.86858726,-0.13240504,0.04886922,0.065973446
71,0.7100000000000004,-0.33294627,-0.418683,-0.87950253,-0.07498371,0.07849618,0.057726767
72,0.7200000000000004,-0.33294627,-0.418683,-0.87950253,-0.03726278,0.11911872,0.054061573
73,0.7300000000000004,-0.33093393,-0.41136545,-0.89078367,-0.0033597588,0.16447547,0.056505036
74,0.7400000000000004,-0.32075045,-0.41423148,-0.8857224,0.00992656,0.17669277,0.057726767
75,0.7500000000000004,-0.32075045,-0.41423148,-0.8857224,0.052687127,0.19410244,0.055588737
76,0.7600000000000005,-0.25605154,-0.43905002,-0.8584647,0.11026118,0.19440787,0.05222898
77,0.7700000000000005,-0.23019636,-0.43258622,-0.86364794,0.18035796,0.19975294,0.010995574
78,0.7800000000000005,-0.2057437,-0.4042309,-0.88810056,0.19914207,0.17531833,-0.022907447
79,0.7900000000000005,-0.2128173,-0.37227783,-0.92804193,0.20234911,0.10445796,-0.06795876
80,0.8000000000000005,-0.22379355,-0.36075276,-0.9590193,0.182496,0.018936822,-0.10445796
81,0.8100000000000005,-0.23056222,-0.35642326,-0.97084934,0.1498147,-0.025350908,-0.1301143
82,0.8200000000000005,-0.23111105,-0.35928926,-0.9595682,0.09758572,-0.05131268,-0.15485434
83,0.8300000000000005,-0.2280621,-0.3635578,-0.9234686,0.07070765,-0.05390886,-0.16600263
84,0.8400000000000005,-0.2280621,-0.3635578,-0.9234686,0.07070765,-0.05390886,-0.16600263
85,0.8500000000000005,-0.21580528,-0.41539007,-0.8471836,0.03894266,-0.039553523,-0.2078469
86,0.8600000000000005,-0.21739073,-0.43770844,-0.8220601,0.010995574,-0.0421497,-0.2434298
87,0.8700000000000006,-0.21739073,-0.43770844,-0.8220601,-0.007330383,-0.03268129,-0.27672195
88,0.8800000000000006,-0.25891754,-0.44185504,-0.81218153,-0.0022907446,-0.030085113,-0.28405234
89,0.8900000000000006,-0.27660152,-0.43478146,-0.849013,0.02076942,-0.0056505036,-0.2753475
90,0.9000000000000006,-0.27995536,-0.4314276,-0.8583427,0.029168816,0.0018325958,-0.26557365
91,0.9100000000000006,-0.23348923,-0.4166097,-0.883893,0.04734206,0.011759156,-0.24587326
92,0.9200000000000006,-0.20739016,-0.41051176,-0.86517245,0.07315111,0.009468411,-0.26160303
93,0.9300000000000006,-0.20739016,-0.41343874,-0.8616966,0.15622878,0.03436117,-0.26374108
94,0.9400000000000006,-0.19647488,-0.40209663,-0.837366,0.18997909,0.10415252,-0.25885415
95,0.9500000000000006,-0.19647488,-0.40209663,-0.837366,0.18997909,0.10415252,-0.25885415
96,0.9600000000000006,-0.16232654,-0.42039037,-0.82998747,0.25610524,0.24984388,-0.22724187
97,0.9700000000000006,-0.16232654,-0.42039037,-0.82998747,0.24480425,0.26083946,-0.204029
98,0.9800000000000006,-0.1203119,-0.46453932,-0.8612088,0.18753563,0.20555615,-0.16508633
99,0.9900000000000007,-0.10903075,-0.4688688,-0.86541635,0.16814066,0.16279559,-0.15775596
100,1.0000000000000007,-0.086834334,-0.47179583,-0.8938936,0.11789699,-0.0035124752,-0.14996742
101,1.0100000000000007,-0.08805392,-0.4674663,-0.9198098,0.08536842,-0.05513059,-0.1731803
102,1.0200000000000007,-0.10689648,-0.46277088,-0.94389653,0.03924809,-0.08475755,-0.204029
103,1.0300000000000007,-0.14384985,-0.45862433,-0.95164096,-0.03863723,-0.12064589,-0.23732115
104,1.0400000000000007,-0.16854642,-0.45770964,-0.9207245,-0.115453534,-0.15897769,-0.26343563
105,1.0500000000000007,-0.18757193,-0.4672224,-0.8111449,-0.16676621,-0.16417004,-0.28084528
106,1.0600000000000007,-0.19952384,-0.4806988,-0.73120123,-0.14477506,-0.1385137,-0.2930626
107,1.0700000000000007,-0.23537959,-0.5017366,-0.68741816,-0.074067414,-0.103847094,-0.28298333
108,1.0800000000000007,-0.27093044,-0.51557887,-0.6841862,0.03940081,-0.072540246,-0.2321288
109,1.0900000000000007,-0.27721128,-0.5171033,-0.6905891,0.111177474,-0.05009095,-0.19028452
110,1.1000000000000008,-0.28105298,-0.51679844,-0.74327505,0.24465153,0.046120327,-0.09437868
111,1.1100000000000008,-0.25007555,-0.5133226,-0.772728,0.28420505,0.11362094,-0.044135015
112,1.1200000000000008,-0.17171735,-0.54844666,-0.78809476,0.29077184,0.18448131,0.0032070426
113,1.1300000000000008,-0.17171735,-0.54844666,-0.78809476,0.26160303,0.27962357,0.051618114
114,1.1400000000000008,-0.17171735,-0.54844666,-0.78809476,0.26160303,0.27962357,0.051618114
115,1.1500000000000008,-0.24166043,-0.6113771,-0.8250481,0.26160303,0.27962357,0.051618114
116,1.1600000000000008,-0.20409729,-0.6012546,-0.7848019,0.2209805,0.39904773,0.13041973
117,1.1700000000000008,-0.22043969,-0.53692156,-0.898833,0.26083946,0.28221974,0.17516561
118,1.1800000000000008,-0.19696271,-0.5027732,-0.9267614,0.27214047,0.24816401,0.1740966
119,1.1900000000000008,-0.14189851,-0.44502598,-0.9629831,0.2564107,0.24923302,0.14584407
120,1.2000000000000008,-0.09671296,-0.41551206,-0.9609707,0.2049453,0.26343563,0.11499538
121,1.2100000000000009,-0.09671296,-0.41551206,-0.9609707,0.13652839,0.27275133,0.07895433
122,1.2200000000000009,-0.09738373,-0.48307696,-0.90554065,0.04734206,0.25503623,0.056505036
123,1.2300000000000009,-0.10457927,-0.5278967,-0.8880396,0.0010690142,0.2133447,0.06246097
124,1.2400000000000009,-0.11037229,-0.5892417,-0.85663533,-0.06918049,0.09941832,0.08689558
125,1.2500000000000009,-0.11348223,-0.61643845,-0.8246823,-0.08964448,0.031001411,0.10919216
126,1.260000000000001,-0.12610492,-0.60973066,-0.8351097,-0.09193522,0.0053450707,0.12140947
127,1.270000000000001,-0.1475086,-0.5777776,-0.8556597,-0.1067487,0.0015271631,0.12996158
128,1.280000000000001,-0.19519432,-0.5054563,-0.8570622,-0.118966006,0.011301007,0.12980886
129,1.290000000000001,-0.19519432,-0.5054563,-0.8570622,-0.13881913,0.03680463,0.12965615
130,1.300000000000001,-0.21909817,-0.4747838,-0.8274264,-0.14508049,0.05497787,0.13683382
131,1.310000000000001,-0.22281788,-0.45216054,-0.75809306,-0.11224649,0.06872234,0.14676037
132,1.320000000000001,-0.22281788,-0.45216054,-0.75809306,-0.06337727,0.084910266,0.15683965
133,1.330000000000001,-0.163912,-0.450819,-0.75120234,-0.0096211275,0.093767814,0.16447547
134,1.340000000000001,-0.13884957,-0.4444162,-0.77730143,0.07360926,0.10048734,0.16249016
135,1.350000000000001,-0.11354321,-0.43856218,-0.8253531,0.060322944,0.094225965,0.15027285
136,1.360000000000001,-0.11354321,-0.43856218,-0.8253531,0.060322944,0.094225965,0.15027285
137,1.370000000000001,-0.12415359,-0.4672224,-0.91871214,-0.04841107,0.07391469,0.11530081
138,1.380000000000001,-0.16702195,-0.50021213,-0.9474943,-0.13332134,0.0050396384,0.08323039
139,1.390000000000001,-0.1958041,-0.50716376,-0.94133544,-0.15210545,-0.09040806,0.0664316
140,1.400000000000001,-0.1958041,-0.50716376,-0.94133544,-0.15210545,-0.09040806,0.0664316
141,1.410000000000001,-0.20995127,-0.4806988,-0.8613918,-0.09590584,-0.21945333,0.03924809
142,1.420000000000001,-0.20330454,-0.46356362,-0.85133016,-0.05421429,-0.20693061,0.028405234
143,1.430000000000001,-0.18635234,-0.44057447,-0.8552938,-0.045814894,-0.17027868,0.0050396384
144,1.440000000000001,-0.17702252,-0.43569615,-0.86358696,-0.07391469,-0.16691893,-0.018325957
145,1.450000000000001,-0.19543824,-0.44892865,-0.86944103,-0.07391469,-0.16691893,-0.018325957
146,1.460000000000001,-0.22251299,-0.4730154,-0.87627065,-0.14614952,-0.15882497,-0.045814894
147,1.470000000000001,-0.24757542,-0.50972486,-0.8823686,-0.14004086,-0.14660765,-0.03481932
148,1.480000000000001,-0.24867305,-0.53808016,-0.90151596,-0.082619525,-0.1693624,-0.0013744468
149,1.490000000000001,-0.20995127,-0.5316164,-0.92901766,-0.027030786,-0.21410827,0.00045814895
150,1.500000000000001,-0.17616881,-0.45831943,-0.9373718,0.0027488936,-0.25060746,-0.0346666
151,1.5100000000000011,-0.17616881,-0.45831943,-0.9373718,0.023060163,-0.30069843,-0.090713486
152,1.5200000000000011,-0.18805976,-0.42087823,-0.9432867,0.019700404,-0.311694,-0.12980886
153,1.5300000000000011,-0.20001167,-0.38971785,-0.93163973,-0.028252518,-0.27183503,-0.15592335
154,1.5400000000000011,-0.2072682,-0.40910926,-0.87639266,-0.107359566,-0.16371189,-0.15928312
155,1.5500000000000012,-0.22165927,-0.4489896,-0.82974356,-0.100334615,-0.1330159,-0.1386664
156,1.5600000000000012,-0.22165927,-0.4489896,-0.82974356,-0.100334615,-0.1330159,-0.1386664
157,1.5700000000000012,-0.24202631,-0.48887,-0.76754475,0.02977968,-0.09789115,-0.043676864
158,1.5800000000000012,-0.22983049,-0.47667417,-0.7754111,0.13225232,-0.075289145,-0.0027488936
159,1.5900000000000012,-0.20885365,-0.4601488,-0.8348658,0.18478674,-0.05177083,0.013286319
160,1.6000000000000012,-0.19141361,-0.4542948,-0.875173,0.17745635,-0.05299256,0.0096211275
161,1.6100000000000012,-0.19141361,-0.4542948,-0.875173,0.17745635,-0.05299256,0.0096211275
162,1.6200000000000012,-0.19141361,-0.4542948,-0.875173,0.17745635,-0.05299256,0.0096211275
163,1.6300000000000012,-0.19141361,-0.4542948,-0.875173,0.17745635,-0.05299256,0.0096211275
164,1.6400000000000012,-0.24348982,-0.49685827,-0.8127913,0.054825157,0.021838432,-0.0759
165,1.6500000000000012,-0.25653934,-0.5455806,-0.7913876,0.11178834,0.085673854,-0.059864793
166,1.6600000000000013,-0.24409962,-0.5606425,-0.80718124,0.15943582,0.09697486,-0.046120327
167,1.6700000000000013,-0.21629311,-0.5517395,-0.81919414,0.18188512,0.045814894,-0.059253927
168,1.6800000000000013,-0.20367043,-0.53899485,-0.81773067,0.18188512,0.045814894,-0.059253927
169,1.6900000000000013,-0.20885365,-0.5029562,-0.8118766,0.17256944,0.015118915,-0.093462385
170,1.7000000000000013,-0.2157443,-0.47283247,-0.8210845,0.18142697,0.004276057,-0.110413894
171,1.7100000000000013,-0.19921893,-0.44057447,-0.83547556,0.17654006,0.004276057,-0.11301007
172,1.7200000000000013,-0.17440042,-0.40831652,-0.8516961,0.15454891,-0.01786781,-0.11789699
173,1.7300000000000013,-0.16452178,-0.41624376,-0.9060894,0.11377365,-0.114689946,-0.13362677
174,1.7400000000000013,-0.16452178,-0.41624376,-0.9060894,0.11377365,-0.114689946,-0.13362677
175,1.7500000000000013,-0.17452239,-0.47088113,-0.8962718,0.02107485,-0.14202617,-0.14996742
176,1.7600000000000013,-0.18866955,-0.52399397,-0.86748964,-0.002443461,-0.11530081,-0.14294247
177,1.7700000000000014,-0.18866955,-0.52399397,-0.86748964,-0.016187929,-0.10567969,-0.13332134
178,1.7800000000000014,-0.19854817,-0.5687527,-0.82803607,-0.01160644,-0.07147124,-0.107665
179,1.7900000000000014,-0.19787739,-0.5833877,-0.6884548,0.033292156,-0.04184427,-0.09040806
180,1.8000000000000014,-0.1967188,-0.54240966,-0.68022263,0.10873401,0.0025961774,-0.05955936
181,1.8100000000000014,-0.19799936,-0.5089321,-0.72107863,0.10873401,0.0025961774,-0.05955936
182,1.8200000000000014,-0.18946227,-0.48704064,-0.755349,0.15806139,0.0786489,-0.009315695
183,1.8300000000000014,-0.18318142,-0.47063723,-0.8115718,0.12935072,0.12736541,0.02687807
184,1.8400000000000014,-0.17909582,-0.47941822,-0.8265117,0.10338894,0.1516473,0.04016439
185,1.8500000000000014,-0.17555903,-0.5100907,-0.81827945,0.05131268,0.22342396,0.06154467
186,1.8600000000000014,-0.17049775,-0.5655818,-0.8068154,0.02275473,0.25137106,0.078343466
187,1.8700000000000014,-0.16397297,-0.60595,-0.8009004,0.0067195175,0.25366178,0.100334615
188,1.8800000000000014,-0.1378739,-0.6822349,-0.78169197,0.0056505036,0.20005837,0.1432479
189,1.8900000000000015,-0.1378739,-0.6822349,-0.78169197,0.03176499,0.09773844,0.19532417
190,1.9000000000000015,-0.10970152,-0.6402203,-0.79852223,0.06307184,-0.027641652,0.24373524
191,1.9100000000000015,-0.08573671,-0.55302006,-0.85389125,0.063682705,-0.11927144,0.2611449
192,1.9200000000000015,-0.09518848,-0.4844185,-0.87675846,-0.0627664,-0.20677789,0.23258694
193,1.9300000000000015,-0.11982407,-0.43831828,-0.87810004,-0.14462234,-0.21456642,0.20647246
194,1.9400000000000015,-0.11982407,-0.43831828,-0.87810004,-0.24495697,-0.21777347,0.18142697
195,1.9500000000000015,-0.18976717,-0.42112213,-0.86437976,-0.30482176,-0.2302962,0.17730364
196,1.9600000000000015,-0.18976717,-0.42112213,-0.86437976,-0.30482176,-0.2302962,0.17730364
197,1.9700000000000015,-0.18976717,-0.42112213,-0.86437976,-0.30482176,-0.2302962,0.17730364
198,1.9800000000000015,-0.20440216,-0.4353303,-0.8551108,-0.34880406,-0.26221392,0.2041817
199,1.9900000000000015,-0.22190319,-0.54216576,-0.8490739,-0.32345316,-0.23396139,0.22128594
200,2.0000000000000013,-0.21751268,-0.5699723,-0.8788927,-0.31978795,-0.22296582,0.21639901
201,2.010000000000001,-0.22111045,-0.5696064,-0.9091384,-0.34162638,-0.23900102,0.204029
202,2.020000000000001,-0.23733091,-0.54875153,-0.9085896,-0.38056904,-0.27107146,0.1769982
203,2.0300000000000007,-0.25019753,-0.53759235,-0.895723,-0.38774672,-0.28084528,0.16600263
204,2.0400000000000005,-0.29757833,-0.5050904,-0.8580988,-0.35796702,-0.2941316,0.13698652
205,2.0500000000000003,-0.31825027,-0.48136955,-0.85224485,-0.31031954,-0.28038713,0.12873985
206,2.06,-0.33294627,-0.45319718,-0.8561475,-0.23839016,-0.24220806,0.12522738
207,2.07,-0.34764224,-0.4021576,-0.8841979,-0.15683965,-0.14523321,0.10949759
208,2.0799999999999996,-0.34020278,-0.40118194,-0.8938936,-0.14248432,-0.1049161,0.10567969
209,2.0899999999999994,-0.32007965,-0.41764635,-0.90175986,-0.14248432,-0.1049161,0.10567969
210,2.099999999999999,-0.32007965,-0.41764635,-0.90175986,-0.14248432,-0.1049161,0.10567969
211,2.109999999999999,-0.30581054,-0.43173254,-0.9068212,-0.12675454,-0.06811147,0.09590584
212,2.1199999999999988,-0.27404037,-0.45929506,-0.8993208,-0.10476339,-0.024129177,0.037110064
213,2.1299999999999986,-0.27208906,-0.4631368,-0.8948693,-0.110872045,-0.0071776668,0.023518313
214,2.1399999999999983,-0.27166218,-0.46362463,-0.88852745,-0.11209377,0.0062613687,0.00015271631
215,2.149999999999998,-0.27910164,-0.4616733,-0.8788927,-0.10338894,0.00015271631,-0.0070249503
216,2.159999999999998,-0.27910164,-0.4616733,-0.8788927,-0.10338894,0.00015271631,-0.0070249503
217,2.1699999999999977,-0.28507763,-0.45685592,-0.86925805,-0.06887506,-0.02397646,-0.014049901
218,2.1799999999999975,-0.2769064,-0.4343546,-0.8709045,-0.00870483,-0.0346666,-0.018478673
219,2.1899999999999973,-0.26519838,-0.42362225,-0.87870985,0.0010690142,-0.02977968,-0.023365596
220,2.199999999999997,-0.24666072,-0.41081664,-0.8855395,0.0022907446,-0.02733622,-0.03680463
221,2.209999999999997,-0.23989205,-0.403987,-0.88310033,-0.0036651916,-0.024892759,-0.054061573
222,2.2199999999999966,-0.24288003,-0.403926,-0.8748681,-0.012217305,-0.020158553,-0.067500606
223,2.2299999999999964,-0.26653996,-0.430269,-0.83236563,-0.016035212,-0.00061086525,-0.07009678
224,2.239999999999996,-0.26653996,-0.430269,-0.83236563,0.027947085,0.020463986,-0.074830994
225,2.249999999999996,-0.26007617,-0.43953782,-0.83998805,0.051159963,0.026725354,-0.0795652
226,2.259999999999996,-0.25653934,-0.43953782,-0.8535864,0.05497787,0.013286319,-0.09666943
227,2.2699999999999956,-0.24916087,-0.43270817,-0.86675787,0.030695979,0.009315695,-0.12492194
228,2.2799999999999954,-0.24916087,-0.43270817,-0.86675787,-0.0010690142,0.022602014,-0.15577064
229,2.289999999999995,-0.2719671,-0.42831767,-0.82760924,-0.0010690142,0.022602014,-0.15577064
230,2.299999999999995,-0.27910164,-0.42490283,-0.80187607,0.013897184,0.01038471,-0.1788308
231,2.3099999999999947,-0.27995536,-0.4235003,-0.8116327,0.013897184,0.01038471,-0.1788308
232,2.3199999999999945,-0.26355198,-0.403987,-0.854623,0.09590584,0.008552114,-0.16982053
233,2.3299999999999943,-0.24190436,-0.39032766,-0.8827954,0.10094548,-0.007330383,-0.1684461
234,2.339999999999994,-0.21781757,-0.38977882,-0.9079188,0.10094548,-0.007330383,-0.1684461
235,2.349999999999994,-0.21086596,-0.39416936,-0.91560215,0.07086037,-0.06734789,-0.17944166
236,2.3599999999999937,-0.19836523,-0.39935255,-0.8968816,0.04642576,-0.07727446,-0.18066339
237,2.3699999999999934,-0.1791568,-0.41715845,-0.8589525,0.024281893,-0.05299256,-0.19929479
238,2.3799999999999932,-0.18159597,-0.441977,-0.84114665,0.020463986,-0.01282817,-0.23869559
239,2.389999999999993,-0.20641449,-0.4591731,-0.8338291,0.013286319,-0.012980887,-0.25702155
240,2.399999999999993,-0.2274523,-0.45972195,-0.8267556,-0.0012217305,-0.027641652,-0.26435193
241,2.4099999999999926,-0.2617226,-0.44240385,-0.8214504,-0.0012217305,-0.036193766,-0.26190847
242,2.4199999999999924,-0.2617226,-0.44240385,-0.8214504,0.012217305,-0.04337143,-0.2519819
243,2.429999999999992,-0.26074693,-0.44191605,-0.82486516,0.029321533,-0.03359759,-0.2434298
244,2.439999999999992,-0.24391668,-0.46764925,-0.8351097,0.03772093,-0.018784106,-0.2312125
245,2.4499999999999917,-0.24391668,-0.46764925,-0.8351097,0.042455133,-0.00290161,-0.21899518
246,2.4599999999999915,-0.23550156,-0.5202133,-0.81730384,0.058948494,0.048563786,-0.183565
247,2.4699999999999913,-0.23513566,-0.55369085,-0.78376526,0.058948494,0.048563786,-0.183565
248,2.479999999999991,-0.23513566,-0.55369085,-0.78376526,0.103847094,0.089186326,-0.15286903
249,2.489999999999991,-0.23903833,-0.57704586,-0.76547146,0.15943582,0.14935656,-0.103847094
250,2.4999999999999907,-0.21800053,-0.5774727,-0.7730939,0.23533584,0.23182335,-0.018020526
251,2.5099999999999905,-0.21464668,-0.5506419,-0.7860215,0.24465153,0.27091873,0.025809057
252,2.5199999999999902,-0.21464668,-0.5506419,-0.7860215,0.24465153,0.27091873,0.025809057
253,2.52999999999999,-0.22056165,-0.5025293,-0.80809593,0.23869559,0.34788775,0.1001819
254,2.53999999999999,-0.23190376,-0.5046636,-0.83986604,0.24327709,0.37614027,0.1330159
255,2.5499999999999896,-0.23190376,-0.5046636,-0.83986604,0.24648413,0.40546182,0.15745051
256,2.5599999999999894,-0.20769504,-0.5187498,-0.86529446,0.24984388,0.41890085,0.18677205
257,2.569999999999989,-0.20769504,-0.5187498,-0.86529446,0.24510968,0.40424007,0.19898935
258,2.579999999999989,-0.20769504,-0.5187498,-0.86529446,0.24510968,0.40424007,0.19898935
259,2.5899999999999888,-0.13177599,-0.46405149,-0.84084177,0.16584991,0.24007004,0.13072516
260,2.5999999999999885,-0.17165637,-0.4346595,-0.863526,0.12705997,0.22876903,0.086437434
261,2.6099999999999883,-0.20379238,-0.40764573,-0.8856615,0.058643065,0.21731532,0.05421429
262,2.619999999999988,-0.21147576,-0.45246542,-0.86858726,0.04046982,0.18906279,0.04444045
263,2.629999999999988,-0.21147576,-0.45246542,-0.86858726,0.032986723,0.053603426,0.054825157
264,2.6399999999999877,-0.21464668,-0.50069994,-0.8631601,0.032986723,0.053603426,0.054825157
265,2.6499999999999875,-0.18574256,-0.5873514,-0.87931955,0.041691553,0.028099801,0.07696902
266,2.6599999999999873,-0.13964228,-0.60448647,-0.8445615,0.017256944,0.020616703,0.06582073
267,2.669999999999987,-0.17775428,-0.5510687,-0.8197429,-0.026419923,0.0030543262,0.011759156
268,2.679999999999987,-0.1999507,-0.4883212,-0.83053625,-0.03604105,-0.009162978,0.008093964
269,2.6899999999999866,-0.1999507,-0.4883212,-0.83053625,-0.03604105,-0.009162978,0.008093964
270,2.6999999999999864,-0.20421924,-0.43246427,-0.87511206,-0.065515295,-0.019089539,0.018936822
271,2.709999999999986,-0.20123126,-0.44026962,-0.87547797,-0.07513642,-0.028863383,0.022602014
272,2.719999999999986,-0.20123126,-0.44026962,-0.87547797,-0.07513642,-0.028863383,0.022602014
273,2.7299999999999858,-0.20123126,-0.44026962,-0.87547797,-0.07513642,-0.028863383,0.022602014
274,2.7399999999999856,-0.16933915,-0.5403364,-0.83980507,-0.10949759,-0.05955936,0.049480084
275,2.7499999999999853,-0.16379005,-0.53533614,-0.8086447,-0.101556346,-0.10598512,0.027641652
276,2.759999999999985,-0.1800105,-0.5081394,-0.81547445,-0.08659015,-0.13637567,0.008246681
277,2.769999999999985,-0.20129223,-0.4747838,-0.85261077,-0.0936151,-0.15485434,-0.010079277
278,2.7799999999999847,-0.20690231,-0.4495994,-0.8938936,-0.13408493,-0.15134187,-0.018784106
279,2.7899999999999845,-0.20586567,-0.44276974,-0.90322345,-0.17944166,-0.14187345,-0.03023783
280,2.7999999999999843,-0.21495157,-0.44563577,-0.86822134,-0.21227567,-0.14828753,-0.049938235
281,2.809999999999984,-0.23068418,-0.45966098,-0.7975465,-0.14080444,-0.20158553,-0.05787948
282,2.819999999999984,-0.23068418,-0.45966098,-0.7975465,-0.14080444,-0.20158553,-0.05787948
283,2.8299999999999836,-0.2359284,-0.46703944,-0.8052909,-0.105374254,-0.20372356,-0.045356743
284,2.8399999999999834,-0.2359284,-0.46703944,-0.8052909,-0.09712757,-0.16340645,-0.030848695
285,2.849999999999983,-0.23897736,-0.4788084,-0.83004844,-0.10369437,-0.116980694,-0.022449298
286,2.859999999999983,-0.2697718,-0.5370435,-0.8369391,-0.10567969,-0.05467244,0.03359759
287,2.869999999999983,-0.23580644,-0.5367996,-0.825414,-0.059406646,-0.0421497,0.058184914
288,2.8799999999999826,-0.23580644,-0.5367996,-0.825414,-0.059406646,-0.0421497,0.058184914
289,2.8899999999999824,-0.17964463,-0.48850408,-0.9126752,0.038026363,-0.1160644,0.041996986
290,2.899999999999982,-0.15793604,-0.44661143,-0.96560514,0.016493361,-0.1601994,0.0053450707
291,2.909999999999982,-0.16122891,-0.3960597,-1.0076808,-0.07467828,-0.18891008,-0.052534413
292,2.9199999999999817,-0.1864743,-0.36983865,-0.9838988,-0.18203785,-0.21410827,-0.09468412
293,2.9299999999999815,-0.21568331,-0.38008317,-0.92993236,-0.24083363,-0.20708331,-0.106137834
294,2.9399999999999813,-0.23916028,-0.40727988,-0.8587086,-0.24358252,-0.18768835,-0.1001819
295,2.949999999999981,-0.26367393,-0.44417223,-0.77467936,-0.18402316,-0.13958271,-0.06688975
296,2.959999999999981,-0.26367393,-0.44417223,-0.77467936,-0.065973446,-0.082619525,-0.02107485
297,2.9699999999999807,-0.24355079,-0.52307934,-0.7852288,0.07651087,-0.019394971,0.033292156
298,2.9799999999999804,-0.24355079,-0.52307934,-0.7852288,0.1142318,-0.0032070426,0.051923547
299,2.9899999999999802,-0.22854991,-0.5202133,-0.8265117,0.11789699,-0.004428773,0.06780604
300,2.99999999999998,-0.2128173,-0.5060051,-0.85041547,0.08246681,-0.019242255,0.06887506
301,3.00999999999998,-0.21684194,-0.4749058,-0.85620844,0.0143553335,-0.051465396,0.041691553
302,3.0199999999999796,-0.23989205,-0.4545387,-0.85328156,-0.0015271631,-0.060170226,0.032986723
303,3.0299999999999794,-0.27641857,-0.4103898,-0.8332194,0.041080687,-0.011148291,0.014660766
304,3.039999999999979,-0.27660152,-0.38746163,-0.82962155,0.041080687,-0.011148291,0.014660766
305,3.049999999999979,-0.27952853,-0.37770495,-0.8336462,0.113926366,0.083383106,-0.0010690142
306,3.0599999999999787,-0.2719061,-0.4001453,-0.85181797,0.113926366,0.083383106,-0.0010690142
307,3.0699999999999785,-0.2719061,-0.4001453,-0.85181797,0.14263703,0.15928312,0.02687807
308,3.0799999999999783,-0.21617115,-0.5177741,-0.8512692,0.13148874,0.16890424,0.04260785
309,3.089999999999978,-0.21617115,-0.5177741,-0.8512692,0.11178834,0.16768251,0.057268616
310,3.099999999999978,-0.2222081,-0.5512517,-0.80803496,0.11178834,0.16768251,0.057268616
311,3.1099999999999777,-0.2222081,-0.5512517,-0.80803496,0.11178834,0.16768251,0.057268616
312,3.1199999999999775,-0.2534904,-0.5642402,-0.84230524,0.1815797,0.17654006,0.03313944
313,3.1299999999999772,-0.24452646,-0.51563984,-0.88810056,0.18310685,0.15821409,0.01863139
314,3.139999999999977,-0.20812188,-0.44484302,-0.9202976,0.16264287,0.11652254,-0.0033597588
315,3.149999999999977,-0.18915738,-0.41502422,-0.93121284,0.12644911,0.06994407,-0.034055736
316,3.1599999999999766,-0.18726702,-0.40234053,-0.9357254,0.09743301,0.04642576,-0.064751714
317,3.1699999999999764,-0.19952384,-0.3960597,-0.92956644,0.042760566,0.038789943,-0.13225232
318,3.179999999999976,-0.22318375,-0.3936815,-0.90596753,0.029626964,0.027641652,-0.17516561
319,3.189999999999976,-0.2394042,-0.4078287,-0.87962455,0.035888333,0.026419923,-0.18127427
320,3.1999999999999758,-0.23720895,-0.43014705,-0.8432809,0.06627888,0.03268129,-0.17241672
321,3.2099999999999755,-0.1958041,-0.5164326,-0.7887046,0.09315695,0.034055736,-0.15882497
322,3.2199999999999753,-0.1958041,-0.5164326,-0.7887046,0.123547494,0.047800206,-0.11957687
323,3.229999999999975,-0.17080265,-0.5674112,-0.77516717,0.13057245,0.063682705,-0.0926988
324,3.239999999999975,-0.17080265,-0.5674112,-0.77516717,0.12415836,0.08445212,-0.05971208
325,3.2499999999999747,-0.17659567,-0.56503296,-0.778643,0.10781772,0.09789115,-0.02443461
326,3.2599999999999745,-0.18159597,-0.5397266,-0.78144807,0.07070765,0.09285152,0.057268616
327,3.2699999999999743,-0.19421865,-0.53399456,-0.7908998,0.061850104,0.096516706,0.100029185
328,3.279999999999974,-0.1967188,-0.5354581,-0.78407013,0.061850104,0.096516706,0.100029185
329,3.289999999999974,-0.19043794,-0.5417389,-0.7771185,0.06719518,0.13698652,0.1611157
330,3.2999999999999736,-0.19037697,-0.5471051,-0.7765697,0.06719518,0.13698652,0.1611157
331,3.3099999999999734,-0.18104716,-0.5524103,-0.78224075,0.09636399,0.1470658,0.1966986
332,3.319999999999973,-0.16885132,-0.5450318,-0.78565556,0.09514226,0.12873985,0.21517728
333,3.329999999999973,-0.155131,-0.5362508,-0.80218095,0.095294975,0.10552697,0.22495113
334,3.3399999999999728,-0.14128873,-0.5264941,-0.8265117,0.077121735,0.07376198,0.23487769
335,3.3499999999999726,-0.12787332,-0.5142983,-0.8562694,0.050396383,0.052839845,0.23105977
336,3.3599999999999723,-0.12086072,-0.4953338,-0.88858837,-0.031154128,0.0070249503,0.20143281
337,3.369999999999972,-0.13689823,-0.47990605,-0.90456504,-0.10430524,-0.02031127,0.17531833
338,3.379999999999972,-0.16531453,-0.4698445,-0.89419854,-0.17852537,-0.07452556,0.15424347
339,3.3899999999999717,-0.1823887,-0.4747838,-0.8874908,-0.20387627,-0.11255192,0.1518
340,3.3999999999999715,-0.20714624,-0.48905292,-0.89340574,-0.22067507,-0.17730364,0.15317446
341,3.4099999999999713,-0.22019579,-0.49405318,-0.8988939,-0.23487769,-0.22983804,0.13988814
342,3.419999999999971,-0.22318375,-0.49063838,-0.89456433,-0.23945917,-0.24831672,0.12522738
343,3.429999999999971,-0.23178181,-0.47600338,-0.8738315,-0.23655757,-0.27152961,0.07880162
344,3.4399999999999706,-0.23574546,-0.4721007,-0.86809945,-0.23655757,-0.27152961,0.07880162
345,3.4499999999999704,-0.23720895,-0.47167388,-0.86858726,-0.23411411,-0.26908615,0.06536258
346,3.45999999999997,-0.23916028,-0.47405204,-0.8641968,-0.23884831,-0.2666427,0.048258353
347,3.46999999999997,-0.27123535,-0.49813882,-0.8613307,-0.23289238,-0.2519819,0.03604105
348,3.47999999999997,-0.2876997,-0.5128958,-0.8641968,-0.22067507,-0.2312125,0.03359759
349,3.4899999999999696,-0.2876997,-0.5128958,-0.8641968,-0.22067507,-0.2312125,0.03359759
350,3.4999999999999694,-0.3003834,-0.51832294,-0.8623065,-0.18203785,-0.16875152,0.03481932
351,3.509999999999969,-0.3120304,-0.5139934,-0.86541635,-0.16982053,-0.15760323,0.03359759
352,3.519999999999969,-0.31160355,-0.5096029,-0.86547726,-0.16982053,-0.15760323,0.03359759
353,3.5299999999999687,-0.29952967,-0.4831989,-0.8666359,-0.14782938,-0.14294247,0.021380283
354,3.5399999999999685,-0.29952967,-0.4831989,-0.8666359,-0.14782938,-0.14294247,0.021380283
355,3.5499999999999683,-0.27007675,-0.4364279,-0.9156632,-0.15210545,-0.1479821,-0.06307184
356,3.559999999999968,-0.27099144,-0.43106174,-0.9245052,-0.16554448,-0.15409076,-0.075289145
357,3.569999999999968,-0.2769064,-0.43307403,-0.91822433,-0.1957823,-0.17150041,-0.110872045
358,3.5799999999999677,-0.28093103,-0.43837923,-0.90310144,-0.20295998,-0.18371773,-0.12675454
359,3.5899999999999674,-0.29337075,-0.44130626,-0.8773683,-0.18448131,-0.18967366,-0.13515393
360,3.5999999999999672,-0.2973954,-0.4374036,-0.8627943,-0.14294247,-0.18952094,-0.12889257
361,3.609999999999967,-0.26745462,-0.41276798,-0.8506594,-0.09315695,-0.1330159,-0.12751812
362,3.619999999999967,-0.26745462,-0.41276798,-0.8506594,-0.08597928,-0.09758572,-0.1337795
363,3.6299999999999666,-0.26019812,-0.40935317,-0.8476714,-0.08597928,-0.09758572,-0.1337795
364,3.6399999999999664,-0.26147866,-0.41764635,-0.860721,-0.08597928,-0.09758572,-0.1337795
365,3.649999999999966,-0.2598932,-0.42740297,-0.8679165,-0.07269296,-0.069485925,-0.1301143
366,3.659999999999966,-0.25788093,-0.4376475,-0.86633104,-0.069027774,-0.07788532,-0.12767084
367,3.6699999999999657,-0.25946635,-0.45075798,-0.8481592,-0.04444045,-0.082619525,-0.12858713
368,3.6799999999999655,-0.2754429,-0.43661085,-0.81827945,0.009162978,-0.05787948,-0.13209961
369,3.6899999999999653,-0.2731257,-0.42734203,-0.81004727,0.03848451,-0.050396383,-0.12950343
370,3.699999999999965,-0.27025968,-0.42093918,-0.8115718,0.06658431,-0.03436117,-0.1207986
371,3.709999999999965,-0.25696623,-0.4238662,-0.822609,0.095753126,-0.013439035,-0.10720685
372,3.7199999999999647,-0.24598998,-0.43892804,-0.83937824,0.10903945,-0.0047342055,-0.09621128
373,3.7299999999999645,-0.2374529,-0.46136835,-0.8502325,0.098043874,-0.01450805,-0.09132435
374,3.7399999999999642,-0.23598938,-0.4744789,-0.83931726,0.08109236,-0.035430185,-0.09010262
375,3.749999999999964,-0.23897736,-0.4831989,-0.8324266,0.07620544,-0.04642576,-0.0852157
376,3.759999999999964,-0.24867305,-0.48374772,-0.83297545,0.07147124,-0.06719518,-0.079107046
377,3.7699999999999636,-0.2526367,-0.46484417,-0.8391343,0.06291912,-0.07819075,-0.08155051
378,3.7799999999999634,-0.25269768,-0.43661085,-0.8511472,0.06429356,-0.0795652,-0.10354166
379,3.789999999999963,-0.26678386,-0.41429248,-0.86864823,0.053450707,-0.0795652,-0.1255328
380,3.799999999999963,-0.26184455,-0.3825223,-0.84462243,0.018784106,-0.022449298,-0.1469131
381,3.8099999999999627,-0.25611252,-0.40971902,-0.81596226,0.020922136,0.026419923,-0.14095716
382,3.8199999999999625,-0.25611252,-0.40971902,-0.81596226,0.020922136,0.026419923,-0.14095716
383,3.8299999999999623,-0.25367334,-0.4476481,-0.79693675,0.031306844,0.0777326,-0.116675265
384,3.839999999999962,-0.24044085,-0.4747838,-0.7848019,0.051923547,0.10842858,-0.09697486
385,3.849999999999962,-0.24361177,-0.5138105,-0.7838262,0.10140363,0.1563815,-0.054061573
386,3.8599999999999617,-0.25184396,-0.51972544,-0.7916316,0.118507855,0.15897769,-0.046731193
387,3.8699999999999615,-0.25184396,-0.51972544,-0.7916316,0.13805555,0.14080444,-0.019547688
388,3.8799999999999613,-0.26757658,-0.52088404,-0.8244384,0.13805555,0.14080444,-0.019547688
389,3.889999999999961,-0.2719061,-0.50588316,-0.83687806,0.12980886,0.10903945,-0.010842858
390,3.899999999999961,-0.2613567,-0.48191833,-0.8385246,0.09560041,0.1160644,-0.045356743
391,3.9099999999999606,-0.25239277,-0.41319484,-0.84462243,0.100334615,0.15760323,-0.07376198
392,3.9199999999999604,-0.26117378,-0.40496266,-0.85407424,0.102319926,0.22464569,-0.08979719
393,3.92999999999996,-0.25672227,-0.42636633,-0.8469397,0.099571034,0.27229318,-0.086437434
394,3.93999999999996,-0.24428254,-0.4735642,-0.8433418,0.09560041,0.29794952,-0.06566802
395,3.9499999999999598,-0.2151345,-0.54350734,-0.8382807,0.093004234,0.2930626,-0.035124753
396,3.9599999999999596,-0.19781642,-0.58729035,-0.837061,0.10415252,0.26267207,-0.014202617
397,3.9699999999999593,-0.184401,-0.6149749,-0.8463298,0.118966006,0.21639901,0.014202617
398,3.979999999999959,-0.17562,-0.6086331,-0.8521839,0.1375974,0.16523905,0.040317107
399,3.989999999999959,-0.16354613,-0.5662525,-0.8696239,0.13652839,0.1385137,0.047800206
400,3.9999999999999587,-0.15933856,-0.5179571,-0.8750511,0.09483683,0.13942999,0.04627304
401,4.009999999999959,-0.15342359,-0.47258857,-0.86334306,0.09483683,0.13942999,0.04627304
402,4.019999999999959,-0.15342359,-0.47258857,-0.86334306,0.09483683,0.13942999,0.04627304
403,4.0299999999999585,-0.19159654,-0.4147193,-0.83181685,0.0041233404,0.1656972,0.016187929
404,4.039999999999958,-0.23684308,-0.41288993,-0.7913876,-0.00076358154,0.17058411,0.023518313
405,4.049999999999958,-0.24153848,-0.4290494,-0.80193704,-0.0036651916,0.21563543,0.04046982
406,4.059999999999958,-0.23757485,-0.44508693,-0.79827833,-0.0062613687,0.226631,0.042760566
407,4.069999999999958,-0.24178241,-0.5275307,-0.816816,0.013591751,0.3098614,0.11224649
408,4.079999999999957,-0.2289158,-0.5440562,-0.8232798,0.058643065,0.30176744,0.16035213
409,4.089999999999957,-0.2289158,-0.5440562,-0.8232798,0.13942999,0.27672195,0.20372356
410,4.099999999999957,-0.16464376,-0.55741054,-0.8609649,0.17867808,0.257327,0.21273382
411,4.109999999999957,-0.11543357,-0.5334458,-0.9197487,0.20005837,0.19898935,0.20570888
412,4.119999999999957,-0.08409027,-0.49393123,-0.9608487,0.14202617,0.124005646,0.16646078
413,4.129999999999956,-0.08622454,-0.4617343,-0.9602999,0.06078109,0.05879578,0.11362094
414,4.139999999999956,-0.12519024,-0.4355742,-0.930786,-0.01695151,0.001985312,0.07666359
415,4.149999999999956,-0.1753151,-0.42362225,-0.8992598,-0.07162395,-0.054519724,0.065515295
416,4.159999999999956,-0.22074458,-0.41051176,-0.8462689,-0.098043874,-0.120493166,0.071776666
417,4.1699999999999555,-0.22434235,-0.40026724,-0.8327925,-0.071013086,-0.15088372,0.08307768
418,4.179999999999955,-0.22915971,-0.40081608,-0.8382196,-0.027947085,-0.1554652,0.076052725
419,4.189999999999955,-0.22592781,-0.42276856,-0.85401326,-0.013439035,-0.13347405,0.06994407
420,4.199999999999955,-0.22318375,-0.45252642,-0.869197,-0.020922136,-0.09560041,0.056199603
421,4.209999999999955,-0.23373315,-0.4993584,-0.8613918,-0.0664316,-0.05207626,0.031306844
422,4.2199999999999545,-0.24050182,-0.52179873,-0.849013,-0.08109236,-0.046120327,0.014049901
423,4.229999999999954,-0.25227082,-0.54375124,-0.82937765,-0.026725354,-0.08109236,-0.027030786
424,4.239999999999954,-0.23233064,-0.5372875,-0.83071923,-0.026725354,-0.08109236,-0.027030786
425,4.249999999999954,-0.18269359,-0.50210243,-0.8963937,0.007330383,-0.15790866,-0.093767814
426,4.259999999999954,-0.18269359,-0.50210243,-0.8963937,0.007330383,-0.15790866,-0.093767814
427,4.269999999999953,-0.17818113,-0.47582048,-0.9215781,-0.15149458,-0.1591304,-0.15836681
428,4.279999999999953,-0.19891405,-0.48027194,-0.89200324,-0.23854288,-0.14737125,-0.17363845
429,4.289999999999953,-0.19891405,-0.48027194,-0.89200324,-0.23854288,-0.14737125,-0.17363845
430,4.299999999999953,-0.28458977,-0.5013707,-0.7898022,-0.20311269,-0.16661349,-0.13179417
431,4.3099999999999525,-0.2939196,-0.49655336,-0.78407013,-0.116217114,-0.18799378,-0.089491755
432,4.319999999999952,-0.26629603,-0.4765522,-0.82937765,-0.014660766,-0.19700404,-0.04718934
433,4.329999999999952,-0.23531862,-0.45850238,-0.872185,0.01817324,-0.17852537,-0.041080687
434,4.339999999999952,-0.21123183,-0.44331855,-0.90279657,0.00580322,-0.1469131,-0.053450707
435,4.349999999999952,-0.20739016,-0.43258622,-0.90145504,-0.075289145,-0.10720685,-0.07742717
436,4.3599999999999515,-0.21409786,-0.4305739,-0.86645305,-0.102319926,-0.09514226,-0.08002335
437,4.369999999999951,-0.2502585,-0.46020976,-0.78748494,-0.11759156,-0.032986723,-0.048563786
438,4.379999999999951,-0.2502585,-0.46020976,-0.78748494,-0.11759156,-0.032986723,-0.048563786
439,4.389999999999951,-0.2678205,-0.49344343,-0.77217925,0.00580322,0.05955936,0.09987647
440,4.399999999999951,-0.22800112,-0.54308045,-0.8227919,0.0627664,0.071013086,0.16615535
441,4.40999999999995,-0.2087317,-0.54448295,-0.84303695,0.095753126,0.063988134,0.20066923
442,4.41999999999995,-0.19373082,-0.5008829,-0.80833983,0.12751812,0.05207626,0.22174409
443,4.42999999999995,-0.19373082,-0.5008829,-0.80833983,0.14935656,0.088728175,0.2180789
444,4.43999999999995,-0.20848778,-0.49124816,-0.8037664,0.1600467,0.12675454,0.22159137
445,4.4499999999999496,-0.21385394,-0.47618634,-0.81327915,0.14966199,0.19379699,0.22983804
446,4.459999999999949,-0.20940247,-0.44502598,-0.8379757,0.1469131,0.11071932,0.18005253
447,4.469999999999949,-0.20940247,-0.44502598,-0.8379757,0.1469131,0.11071932,0.18005253
448,4.479999999999949,-0.21507353,-0.44026962,-0.8580378,0.14844026,0.089949906,0.17394388
449,4.489999999999949,-0.23074517,-0.36221626,-0.9459089,0.14844026,-0.020005837,0.10354166
450,4.4999999999999485,-0.23074517,-0.36221626,-0.9459089,0.14844026,-0.020005837,0.10354166
451,4.509999999999948,-0.2148906,-0.34983748,-0.93029815,0.007788532,-0.05177083,-0.09056077
452,4.519999999999948,-0.23897736,-0.36014298,-0.9065163,-0.032375857,-0.060628377,-0.14095716
453,4.529999999999948,-0.27617463,-0.3992306,-0.86498946,-0.029626964,-0.08628472,-0.15790866
454,4.539999999999948,-0.2918463,-0.4542948,-0.82748735,0.012064588,-0.095753126,-0.14782938
455,4.549999999999947,-0.2842239,-0.51320064,-0.8237676,0.062002823,-0.08445212,-0.12064589
456,4.559999999999947,-0.2367821,-0.5543006,-0.8140109,0.09605856,-0.075594574,-0.084910266
457,4.569999999999947,-0.19702369,-0.5457026,-0.79760754,0.109650314,-0.08155051,-0.08368854
458,4.579999999999947,-0.18135203,-0.5286284,-0.8152305,0.114689946,-0.08277224,-0.108123146
459,4.589999999999947,-0.19897503,-0.5225305,-0.85687923,0.08659015,-0.081855945,-0.12415836
460,4.599999999999946,-0.21757366,-0.51112735,-0.9107849,-0.0027488936,-0.08246681,-0.14187345
461,4.609999999999946,-0.23696505,-0.5107615,-0.9183462,-0.047647487,-0.12186762,-0.17012598
462,4.619999999999946,-0.23696505,-0.5107615,-0.9183462,-0.047647487,-0.12186762,-0.17012598
463,4.629999999999946,-0.25806385,-0.50063896,-0.9093824,-0.071318515,-0.20372356,-0.21151209
464,4.6399999999999455,-0.2789797,-0.47435695,-0.87925863,-0.071318515,-0.20372356,-0.21151209
465,4.649999999999945,-0.2807481,-0.46069762,-0.8618796,-0.056505036,-0.20372356,-0.22006421
466,4.659999999999945,-0.24580702,-0.43398872,-0.8106571,-0.020005837,-0.1498147,-0.2359467
467,4.669999999999945,-0.23074517,-0.44551378,-0.80065644,-0.008246681,-0.082619525,-0.24709499
468,4.679999999999945,-0.22135438,-0.47710103,-0.790412,-0.011148291,-0.027794369,-0.25595254
469,4.689999999999944,-0.2145247,-0.49752906,-0.78376526,-0.016340645,0.008857546,-0.25244007
470,4.699999999999944,-0.21922012,-0.515152,-0.790412,0.0056505036,-0.00076358154,-0.22907446
471,4.709999999999944,-0.2209885,-0.52198166,-0.80157113,0.036193766,-0.015118915,-0.19700404
472,4.719999999999944,-0.2209885,-0.52198166,-0.80157113,0.059253927,-0.0125227375,-0.1563815
473,4.729999999999944,-0.19915795,-0.53515315,-0.83041435,0.06505715,0.0022907446,-0.119729586
474,4.739999999999943,-0.19769447,-0.5399705,-0.8279142,0.07574729,0.014660766,-0.089186326
475,4.749999999999943,-0.18623038,-0.53692156,-0.80736417,0.076816306,0.029321533,-0.061086524
476,4.759999999999943,-0.18769388,-0.5202133,-0.76906925,0.07391469,0.04886922,-0.02321288
477,4.769999999999943,-0.18068127,-0.50454164,-0.74778754,0.09193522,0.06001751,0.022143865
478,4.7799999999999425,-0.17964463,-0.4923458,-0.7601053,0.107665,0.06383542,0.05390886
479,4.789999999999942,-0.1853157,-0.4885651,-0.78016746,0.10873401,0.056505036,0.07971791
480,4.799999999999942,-0.18019344,-0.4861869,-0.807913,0.08032878,0.04917465,0.12721269
481,4.809999999999942,-0.17562,-0.5130178,-0.8148646,0.059406646,0.049021937,0.14187345
482,4.819999999999942,-0.17562,-0.5130178,-0.8148646,0.016646078,0.04138612,0.15134187
483,4.8299999999999415,-0.18135203,-0.5320433,-0.8102912,-0.009162978,0.03756821,0.15241088
484,4.839999999999941,-0.19153556,-0.5515566,-0.8038274,-0.026267206,0.03145956,0.15485434
485,4.849999999999941,-0.21092694,-0.561923,-0.8097424,-0.03848451,0.02031127,0.160963
486,4.859999999999941,-0.20184104,-0.5443001,-0.80254686,-0.04932737,0.0154243475,0.15958855
487,4.869999999999941,-0.1925722,-0.5335677,-0.8069983,-0.072540246,-0.005497787,0.15836681
488,4.87999999999994,-0.1925722,-0.5335677,-0.8069983,-0.072540246,-0.005497787,0.15836681
489,4.88999999999994,-0.19806033,-0.4996633,-0.86590415,-0.11346822,-0.104610674,0.17195857
490,4.89999999999994,-0.20178007,-0.50362694,-0.8849297,-0.14034629,-0.124311075,0.17669277
491,4.90999999999994,-0.207817,-0.52082306,-0.90328443,-0.20143281,-0.13927728,0.17394388
492,4.9199999999999395,-0.21135378,-0.52856743,-0.8846858,-0.23671028,-0.1591304,0.16279559
493,4.929999999999939,-0.2189152,-0.5250916,-0.8619405,-0.23777929,-0.18234327,0.15317446
494,4.939999999999939,-0.23318435,-0.52173775,-0.8509033,-0.2264783,-0.20662516,0.15210545
495,4.949999999999939,-0.23909931,-0.5149691,-0.8466348,-0.2191479,-0.21762075,0.15577064
496,4.959999999999939,-0.25903952,-0.500517,-0.86407477,-0.20693061,-0.22235495,0.17058411
497,4.9699999999999385,-0.2754429,-0.48850408,-0.8848687,-0.20693061,-0.22235495,0.17058411
498,4.979999999999938,-0.29648072,-0.4744789,-0.8852346,-0.20693061,-0.22235495,0.17058411
499,4.989999999999938,-0.28617525,-0.47838157,-0.8924301,-0.21945333,-0.16997325,0.16783522
500,4.999999999999938,-0.30843264,-0.4677102,-0.86547726,-0.21838433,-0.14676037,0.16172658
501,5.009999999999938,-0.3281289,-0.46673456,-0.8442565,-0.17333302,-0.1001819,0.150731
502,5.019999999999937,-0.33794656,-0.45905116,-0.8449273,-0.1001819,-0.060628377,0.14737125
503,5.029999999999937,-0.32904357,-0.45508754,-0.8585257,-0.07467828,-0.03359759,0.14004086
504,5.039999999999937,-0.31629896,-0.44679436,-0.87017274,-0.07238753,-0.0030543262,0.122783914
505,5.049999999999937,-0.31629896,-0.44679436,-0.87017274,-0.07238753,-0.0030543262,0.122783914
506,5.0599999999999365,-0.30507877,-0.43313503,-0.88145393,-0.09101892,0.06261369,0.089491755
507,5.069999999999936,-0.29428545,-0.4355132,-0.8862102,-0.093462385,0.08827003,0.071013086
508,5.079999999999936,-0.28635818,-0.44325754,-0.8938326,-0.08124508,0.090713486,0.05390886
509,5.089999999999936,-0.27995536,-0.44953844,-0.89364964,-0.08124508,0.090713486,0.05390886
510,5.099999999999936,-0.2681864,-0.4578316,-0.90175986,-0.043982297,0.054367006,0.031001411
511,5.1099999999999355,-0.26269826,-0.46118546,-0.9084677,-0.024129177,0.025045475,0.0154243475
512,5.119999999999935,-0.2573321,-0.45240447,-0.91340697,-0.025198191,0.016493361,-0.0041233404
513,5.129999999999935,-0.257576,-0.42898846,-0.90493083,-0.032375857,0.004276057,-0.024892759
514,5.139999999999935,-0.25714916,-0.4177683,-0.9021258,-0.033444874,-0.005497787,-0.0346666
515,5.149999999999935,-0.24964872,-0.39380345,-0.88919824,-0.02565634,-0.03481932,-0.06627888
516,5.159999999999934,-0.24733151,-0.38886416,-0.87999034,-0.008246681,-0.040927973,-0.08827003
517,5.169999999999934,-0.24592897,-0.3927668,-0.87017274,0.012675454,-0.055436023,-0.10399981
518,5.179999999999934,-0.23867247,-0.39996237,-0.8587696,0.012675454,-0.055436023,-0.10399981
519,5.189999999999934,-0.22367159,-0.44801396,-0.82346267,-0.00061086525,-0.0664316,-0.10399981
520,5.199999999999934,-0.22123243,-0.46551496,-0.8090716,-0.034972034,-0.07162395,-0.10170906
521,5.209999999999933,-0.22123243,-0.46551496,-0.8090716,-0.063224554,-0.0571159,-0.099571034
522,5.219999999999933,-0.2374529,-0.49374834,-0.7820578,-0.11866058,-0.016035212,-0.107359566
523,5.229999999999933,-0.26904008,-0.5037489,-0.78376526,-0.10873401,-0.02076942,-0.11224649
524,5.239999999999933,-0.2997126,-0.49143112,-0.8436468,0.01572978,-0.16890424,-0.06307184
525,5.2499999999999325,-0.28324825,-0.46502712,-0.8491959,0.03313944,-0.19074267,-0.06047566
526,5.259999999999932,-0.25440508,-0.40587732,-0.8442565,0.03313944,-0.19074267,-0.06047566
527,5.269999999999932,-0.23952618,-0.36874104,-0.8430979,0.065209866,-0.18203785,-0.110413894
528,5.279999999999932,-0.23952618,-0.36874104,-0.8430979,0.065209866,-0.18203785,-0.110413894
529,5.289999999999932,-0.22934265,-0.34678853,-0.84864706,0.04062254,-0.14202617,-0.14248432
530,5.299999999999931,-0.25019753,-0.34788615,-0.8624893,-0.037415497,-0.0021380284,-0.19990565
531,5.309999999999931,-0.28873634,-0.3822174,-0.8385246,-0.08093964,0.073303826,-0.18341228
532,5.319999999999931,-0.30190787,-0.41874394,-0.81096196,-0.07880162,0.096516706,-0.15286903
533,5.329999999999931,-0.30550563,-0.4619782,-0.76998395,-0.03634648,0.1151481,-0.10125092
534,5.339999999999931,-0.30550563,-0.4619782,-0.76998395,0.04153884,0.14019357,-0.050701816
535,5.34999999999993,-0.26562527,-0.4991755,-0.73894554,0.07437284,0.15500705,-0.035888333
536,5.35999999999993,-0.23105007,-0.5054563,-0.78236276,0.17684549,0.20082195,-0.008552114
537,5.36999999999993,-0.22440335,-0.50807846,-0.8587696,0.18280143,0.20708331,0.0061086523
538,5.37999999999993,-0.21665898,-0.5096639,-0.90450394,0.15103643,0.1873829,0.0061086523
539,5.3899999999999295,-0.22172025,-0.5107615,-0.93523747,0.09392053,0.13927728,-0.010079277
540,5.399999999999929,-0.25166103,-0.48344287,-0.88029534,0.06963864,0.11835514,-0.01985312
541,5.409999999999929,-0.25166103,-0.48344287,-0.88029534,0.035888333,0.08032878,-0.04810564
542,5.419999999999929,-0.26794246,-0.45027018,-0.83212173,0.06154467,0.09636399,-0.052839845
543,5.429999999999929,-0.26086888,-0.44770905,-0.8072422,0.16814066,0.20693061,-0.009773844
544,5.4399999999999284,-0.26086888,-0.44770905,-0.8072422,0.16814066,0.20693061,-0.009773844
545,5.449999999999928,-0.2087317,-0.48887,-0.82913375,0.2321288,0.27214047,0.06246097
546,5.459999999999928,-0.2087317,-0.48887,-0.82913375,0.2321288,0.27214047,0.06246097
547,5.469999999999928,-0.18275456,-0.5304578,-0.92048055,0.18616119,0.19868392,0.077121735
548,5.479999999999928,-0.17671762,-0.5265551,-0.942372,0.109650314,0.11759156,0.05009095
549,5.489999999999927,-0.18720604,-0.5041757,-0.9267005,0.01740966,0.048563786,0.0106901415
550,5.499999999999927,-0.20214595,-0.4665516,-0.86834335,-0.07880162,0.00030543262,-0.026419923
551,5.509999999999927,-0.21117085,-0.44935548,-0.8052909,-0.10949759,0.007330383,-0.0364992
552,5.519999999999927,-0.22312276,-0.45807552,-0.77406955,-0.12186762,0.034208454,-0.02687807
553,5.5299999999999265,-0.23476979,-0.49124816,-0.75772715,-0.118507855,0.04642576,0.0012217305
554,5.539999999999926,-0.23952618,-0.51417637,-0.7574832,-0.11010846,0.049021937,0.020922136
555,5.549999999999926,-0.25092927,-0.5371655,-0.76998395,-0.06856962,0.05177083,0.050396383
556,5.559999999999926,-0.25971028,-0.50856626,-0.78748494,-0.016035212,0.058184914,0.058184914
557,5.569999999999926,-0.2733696,-0.471186,-0.8075471,0.02687807,0.057268616,0.062002823
558,5.5799999999999255,-0.26562527,-0.42831767,-0.82846296,0.07819075,0.05513059,0.07223482
559,5.589999999999925,-0.24861206,-0.38685185,-0.84980565,0.100334615,0.054061573,0.06994407
560,5.599999999999925,-0.21367101,-0.38386387,-0.8884665,0.09758572,0.100334615,0.062308256
561,5.609999999999925,-0.19165753,-0.43429363,-0.86273324,0.008552114,0.17440203,0.09819659
562,5.619999999999925,-0.17098558,-0.4984437,-0.84523225,-0.01863139,0.18280143,0.13225232
563,5.629999999999924,-0.17098558,-0.4984437,-0.84523225,-0.01863139,0.18280143,0.13225232
564,5.639999999999924,-0.1554359,-0.60759646,-0.87535596,-0.014966198,0.11209377,0.21212296
565,5.649999999999924,-0.16171674,-0.5848512,-0.8952351,0.00030543262,0.049938235,0.21120666
566,5.659999999999924,-0.18415709,-0.53192127,-0.9224319,0.019394971,-0.030543262,0.1908954
567,5.6699999999999235,-0.2066584,-0.46880785,-0.9555435,0.013744468,-0.07696902,0.16890424
568,5.679999999999923,-0.21653701,-0.41386563,-0.9734105,-0.012980887,-0.094225965,0.15302174
569,5.689999999999923,-0.21751268,-0.3694118,-0.9485919,-0.09483683,-0.09483683,0.12186762
570,5.699999999999923,-0.2119026,-0.36928985,-0.92322457,-0.1217149,-0.101098195,0.10949759
571,5.709999999999923,-0.2031826,-0.41721946,-0.84212226,-0.17623462,-0.14660765,0.063988134
572,5.7199999999999225,-0.19391376,-0.45319718,-0.8216333,-0.18188512,-0.18341228,0.03726278
573,5.729999999999922,-0.19531627,-0.4668565,-0.82096255,-0.1815797,-0.20051652,0.017715093
574,5.739999999999922,-0.22489117,-0.47874746,-0.8269995,-0.17898351,-0.20051652,-0.032375857
575,5.749999999999922,-0.23165986,-0.47588143,-0.8324266,-0.17638734,-0.18952094,-0.051923547
576,5.759999999999922,-0.3295924,-0.4735642,-0.84126866,-0.16814066,-0.13347405,-0.07788532
577,5.769999999999921,-0.3295924,-0.4735642,-0.84126866,-0.16814066,-0.13347405,-0.07788532
578,5.779999999999921,-0.3538621,-0.45447776,-0.76230055,-0.16584991,-0.11026118,-0.071776666
579,5.789999999999921,-0.3538621,-0.45447776,-0.76230055,-0.16584991,-0.11026118,-0.071776666
580,5.799999999999921,-0.30861557,-0.456612,-0.75595874,0.020463986,-0.03924809,0.02076942
581,5.809999999999921,-0.2222081,-0.44819686,-0.872185,0.09621128,0.027030786,-0.03772093
582,5.81999999999992,-0.2222081,-0.44819686,-0.872185,0.09621128,0.027030786,-0.03772093
583,5.82999999999992,-0.18690115,-0.40825552,-0.9634099,0.005497787,-0.07620544,-0.1001819
584,5.83999999999992,-0.18482786,-0.40831652,-0.97853273,-0.058643065,-0.15103643,-0.12232576
585,5.84999999999992,-0.1853157,-0.4166097,-0.9764594,-0.096516706,-0.17088956,-0.13103059
586,5.8599999999999195,-0.19586508,-0.44185504,-0.92657846,-0.096516706,-0.17088956,-0.13103059
587,5.869999999999919,-0.19586508,-0.44185504,-0.92657846,-0.1600467,-0.17012598,-0.15225816
588,5.879999999999919,-0.26775953,-0.46295384,-0.84321994,-0.1441642,-0.14553864,-0.16814066
589,5.889999999999919,-0.31099376,-0.45825842,-0.8061446,-0.1441642,-0.14553864,-0.16814066
590,5.899999999999919,-0.32940948,-0.44069642,-0.78169197,0.008093964,-0.12492194,-0.06704246
591,5.909999999999918,-0.3050178,-0.43039095,-0.79083884,0.07376198,-0.09025534,-0.01282817
592,5.919999999999918,-0.2716012,-0.43362287,-0.81815743,0.109650314,-0.022907447,0.032375857
593,5.929999999999918,-0.2716012,-0.43362287,-0.81815743,0.109650314,-0.022907447,0.032375857
594,5.939999999999918,-0.2716012,-0.43362287,-0.81815743,0.109650314,-0.022907447,0.032375857
595,5.949999999999918,-0.22409843,-0.44362345,-0.8303533,0.10995574,0.07971791,0.05879578
596,5.959999999999917,-0.22897679,-0.47545454,-0.8621235,0.100334615,0.06505715,0.047800206
597,5.969999999999917,-0.257515,-0.47618634,-0.8843808,0.0786489,0.029474247,0.03924809
598,5.979999999999917,-0.257515,-0.47618634,-0.8843808,0.048563786,-0.034208454,0.023365596
599,5.989999999999917,-0.27221102,-0.48014995,-0.8756608,0.048563786,-0.034208454,0.023365596
600,5.9999999999999165,-0.31550622,-0.49393123,-0.82577986,0.035277467,-0.06352998,0.028405234
601,6.009999999999916,-0.31550622,-0.49393123,-0.82577986,0.035277467,-0.06352998,0.028405234
602,6.019999999999916,-0.30763993,-0.50978583,-0.7689473,0.13133603,0.14462234,0.080634214
603,6.029999999999916,-0.29495624,-0.5125909,-0.7677887,0.17256944,0.19608775,0.08933904
604,6.039999999999916,-0.27769914,-0.50429773,-0.79650986,0.17256944,0.19608775,0.08933904
605,6.0499999999999154,-0.26251534,-0.48283303,-0.8190112,0.23976462,0.22586742,0.08475755
606,6.059999999999915,-0.24245316,-0.46911272,-0.834073,0.23625213,0.20387627,0.08109236
607,6.069999999999915,-0.22104947,-0.4480749,-0.84193933,0.21685717,0.18295415,0.08353582
608,6.079999999999915,-0.22104947,-0.4480749,-0.84193933,0.19715676,0.18768835,0.08460484
609,6.089999999999915,-0.21928109,-0.44911155,-0.86968493,0.16982053,0.22540927,0.09162979
610,6.099999999999914,-0.22269592,-0.4495994,-0.872124,0.16355917,0.23884831,0.098807454
611,6.109999999999914,-0.18482786,-0.42600048,-0.86669695,0.17470746,0.23273966,0.10262536
612,6.119999999999914,-0.18482786,-0.42600048,-0.86669695,0.21456642,0.17928895,0.06154467
613,6.129999999999914,-0.1855596,-0.4173414,-0.8965157,0.22602014,0.13775012,0.026267206
614,6.1399999999999135,-0.18757193,-0.39801103,-0.95139694,0.18799378,0.051923547,-0.047036625
615,6.149999999999913,-0.18665724,-0.38923004,-0.95536065,0.18799378,0.051923547,-0.047036625
616,6.159999999999913,-0.21080498,-0.4124631,-0.8622454,0.0056505036,-0.07620544,-0.13209961
617,6.169999999999913,-0.21080498,-0.4124631,-0.8622454,0.0056505036,-0.07620544,-0.13209961
618,6.179999999999913,-0.21592724,-0.44014767,-0.8205357,0.06078109,-0.08445212,-0.118202426
619,6.1899999999999125,-0.22440335,-0.5011268,-0.8140109,0.0852157,-0.07819075,-0.11682798
620,6.199999999999912,-0.24678269,-0.5434463,-0.892674,0.11209377,-0.06704246,-0.11911872
621,6.209999999999912,-0.25708818,-0.52643317,-0.8959059,0.08781188,-0.06352998,-0.14874569
622,6.219999999999912,-0.26885715,-0.5019805,-0.85492796,0.08781188,-0.06352998,-0.14874569
623,6.229999999999912,-0.27568683,-0.48777235,-0.8093765,0.0804815,-0.042913284,-0.19532417
624,6.239999999999911,-0.27294275,-0.48332086,-0.7957171,0.08903361,-0.0355829,-0.19410244
625,6.249999999999911,-0.23318435,-0.480089,-0.7768746,0.11682798,-0.010842858,-0.14630222
626,6.259999999999911,-0.20238985,-0.49649242,-0.7753501,0.121256754,0.016035212,-0.12308934
627,6.269999999999911,-0.20238985,-0.49649242,-0.7753501,0.10873401,0.038026363,-0.10369437
628,6.2799999999999105,-0.17982757,-0.56076443,-0.79919297,0.08155051,0.05131268,-0.07574729
629,6.28999999999991,-0.18305947,-0.5793021,-0.80779105,0.065515295,0.056046885,-0.05513059
630,6.29999999999991,-0.17812014,-0.59582746,-0.8060836,0.035888333,0.05100725,-0.006414085
631,6.30999999999991,-0.17104656,-0.5927785,-0.7821798,0.029474247,0.04627304,0.027794369
632,6.31999999999991,-0.17994952,-0.58259493,-0.7750452,0.024587326,0.031612277,0.057268616
633,6.3299999999999095,-0.19488941,-0.55484945,-0.7565685,0.0061086523,0.012064588,0.10125092
634,6.339999999999909,-0.2004995,-0.5382631,-0.7446166,-0.0025961774,0.0071776668,0.13423763
635,6.349999999999909,-0.21428078,-0.5105786,-0.7485193,-0.0018325958,0.021838432,0.18677205
636,6.359999999999909,-0.21415883,-0.50283426,-0.7641909,0.0016798794,0.03283401,0.21120666
637,6.369999999999909,-0.20903657,-0.49606553,-0.7944366,-0.007483099,0.062155537,0.2576324
638,6.379999999999908,-0.20184104,-0.5039318,-0.8274264,-0.007483099,0.062155537,0.2576324
639,6.389999999999908,-0.19623096,-0.5107615,-0.8467567,-0.04428773,0.062002823,0.2744312
640,6.399999999999908,-0.1700709,-0.5219207,-0.8736486,-0.06994407,0.04352415,0.27320948
641,6.409999999999908,-0.1783031,-0.51807904,-0.88011235,-0.06994407,0.04352415,0.27320948
642,6.419999999999908,-0.1783031,-0.51807904,-0.88011235,-0.06994407,0.04352415,0.27320948
643,6.429999999999907,-0.22440335,-0.48277208,-0.87663656,-0.1518,-0.08032878,0.20830505
644,6.439999999999907,-0.26403978,-0.45770964,-0.8724899,-0.1769982,-0.13912456,0.18387043
645,6.449999999999907,-0.28105298,-0.45295325,-0.8834052,-0.18051068,-0.16233744,0.1779145
646,6.459999999999907,-0.27910164,-0.44709927,-0.886881,-0.18280143,-0.17821993,0.17180584
647,6.4699999999999065,-0.27416235,-0.44953844,-0.88828355,-0.19120082,-0.1881465,0.15592335
648,6.479999999999906,-0.27416235,-0.4621611,-0.88078314,-0.20082195,-0.18448131,0.13133603
649,6.489999999999906,-0.2815408,-0.48990667,-0.8629772,-0.21792617,-0.16035213,0.08582657
650,6.499999999999906,-0.29318783,-0.5046026,-0.8551108,-0.2191479,-0.1432479,0.057726767
651,6.509999999999906,-0.3170307,-0.52179873,-0.85175705,-0.20433442,-0.13225232,0.028405234
652,6.519999999999905,-0.34081256,-0.5272868,-0.8557816,-0.17745635,-0.117438845,0.016187929
653,6.529999999999905,-0.3442274,-0.52588433,-0.860721,-0.1601994,-0.10995574,0.013897184
654,6.539999999999905,-0.33587328,-0.5078345,-0.8725509,-0.13347405,-0.09025534,0.007788532
655,6.549999999999905,-0.32282373,-0.4843575,-0.8756608,-0.124769226,-0.08170322,-0.006872234
656,6.559999999999905,-0.304469,-0.43947688,-0.8862712,-0.117438845,-0.0804815,-0.027641652
657,6.569999999999904,-0.304469,-0.43947688,-0.8862712,-0.11362094,-0.0804815,-0.05085453
658,6.579999999999904,-0.29513916,-0.4267932,-0.90236974,-0.11102476,-0.06963864,-0.09239337
659,6.589999999999904,-0.28928518,-0.42575654,-0.9018819,-0.11102476,-0.06963864,-0.09239337
660,6.599999999999904,-0.28928518,-0.42575654,-0.9018819,-0.110872045,-0.0720821,-0.09972375
661,6.6099999999999035,-0.27233297,-0.42709813,-0.88950306,-0.10216721,-0.0804815,-0.10705414
662,6.619999999999903,-0.26032007,-0.42453694,-0.8743193,-0.07651087,-0.064599,-0.11178834
663,6.629999999999903,-0.237087,-0.42093918,-0.86242837,-0.05467244,-0.04734206,-0.122783914
664,6.639999999999903,-0.2321477,-0.4170365,-0.8726729,-0.049632803,-0.048563786,-0.12522738
665,6.649999999999903,-0.22751327,-0.41514617,-0.89456433,-0.07269296,-0.07437284,-0.13133603
666,6.659999999999902,-0.22794013,-0.42587852,-0.8954181,-0.09330966,-0.09392053,-0.14110987
667,6.669999999999902,-0.23666015,-0.43423265,-0.8963328,-0.09330966,-0.09392053,-0.14110987
668,6.679999999999902,-0.23666015,-0.43423265,-0.8963328,-0.09330966,-0.09392053,-0.14110987
669,6.689999999999902,-0.25891754,-0.4488067,-0.85596454,-0.09407325,-0.15378532,-0.14950927
670,6.699999999999902,-0.272272,-0.45856333,-0.83157295,-0.05131268,-0.15103643,-0.13820826
671,6.709999999999901,-0.2787358,-0.45709983,-0.81608415,-0.03313944,-0.13026701,-0.13209961
672,6.719999999999901,-0.29398057,-0.4552095,-0.80602264,-0.014966198,-0.099571034,-0.12721269
673,6.729999999999901,-0.29398057,-0.4552095,-0.80602264,0.01282817,-0.05665775,-0.12232576
674,6.739999999999901,-0.29611483,-0.45874628,-0.8323047,0.033444874,-0.029626964,-0.124769226
675,6.7499999999999005,-0.30495682,-0.46234405,-0.8727948,0.011453724,-0.024892759,-0.14202617
676,6.7599999999999,-0.3093473,-0.436062,-0.89072275,-0.0627664,-0.070554934,-0.16554448
677,6.7699999999999,-0.31459153,-0.41606086,-0.8671237,-0.009468411,-0.032375857,-0.12003502
678,6.7799999999999,-0.30282256,-0.40173078,-0.8316339,-0.009468411,-0.032375857,-0.12003502
679,6.7899999999999,-0.22111045,-0.3904496,-0.81730384,0.12339478,0.0355829,-0.09621128
680,6.7999999999998995,-0.18312044,-0.4004502,-0.8094985,0.15790866,0.024892759,-0.10705414
681,6.809999999999899,-0.18312044,-0.4004502,-0.8094985,0.15790866,0.024892759,-0.10705414
682,6.819999999999899,-0.2072682,-0.45325816,-0.80919355,0.172264,-0.04230242,-0.16905695
683,6.829999999999899,-0.23379412,-0.46417344,-0.8209015,0.16630806,-0.059406646,-0.17394388
684,6.839999999999899,-0.26574722,-0.46490517,-0.8465737,0.116217114,-0.09758572,-0.16187929
685,6.849999999999898,-0.2786748,-0.4235613,-0.8442565,0.09162979,-0.095294975,-0.14492778
686,6.859999999999898,-0.26038104,-0.39904767,-0.8346219,0.064446285,-0.08200866,-0.124311075
687,6.869999999999898,-0.23928225,-0.37886357,-0.8146817,0.032375857,-0.046731193,-0.119729586
688,6.879999999999898,-0.2271474,-0.38459563,-0.8052299,0.02733622,-0.020005837,-0.123547494
689,6.8899999999998975,-0.2403189,-0.43154958,-0.8243164,0.04153884,0.049632803,-0.1385137
690,6.899999999999897,-0.26861322,-0.5716187,-0.8374879,0.04153884,0.049632803,-0.1385137
691,6.909999999999897,-0.26861322,-0.5716187,-0.8374879,0.030390546,0.037415497,-0.10293079
692,6.919999999999897,-0.27507702,-0.6154018,-0.7999857,0.04520403,0.0021380284,-0.07467828
693,6.929999999999897,-0.27507702,-0.6154018,-0.7999857,0.062155537,0.0010690142,-0.05131268
694,6.9399999999998965,-0.2376968,-0.54783684,-0.77315485,0.11530081,0.0711658,-0.01695151
695,6.949999999999896,-0.2376968,-0.54783684,-0.77315485,0.11530081,0.0711658,-0.01695151
696,6.959999999999896,-0.27965048,-0.48777235,-0.80596167,0.12980886,0.11636983,-0.028099801
697,6.969999999999896,-0.28312626,-0.48191833,-0.80218095,0.1414153,0.16890424,0.002443461
698,6.979999999999896,-0.2716012,-0.4730764,-0.7885216,0.15622878,0.26557365,0.064446285
699,6.989999999999895,-0.26129574,-0.4778937,-0.79224133,0.15622878,0.26557365,0.064446285
700,6.999999999999895,-0.22269592,-0.49277264,-0.7984003,0.17394388,0.32070425,0.11453723
701,7.009999999999895,-0.20123126,-0.5253965,-0.82614577,0.2134974,0.35643986,0.2087632
702,7.019999999999895,-0.20153615,-0.5419829,-0.83815867,0.2134974,0.35643986,0.2087632
703,7.0299999999998946,-0.20367043,-0.5600937,-0.85791594,0.21868975,0.27366763,0.28008172
704,7.039999999999894,-0.19921893,-0.56253284,-0.8622454,0.21380283,0.24801129,0.29367346
705,7.049999999999894,-0.16171674,-0.5588741,-0.8595013,0.19456059,0.19303341,0.31581733
706,7.059999999999894,-0.14177656,-0.5353971,-0.8698068,0.1693624,0.14263703,0.2864958
707,7.069999999999894,-0.140496,-0.50807846,-0.8696239,0.15012014,0.116980694,0.2669481
708,7.0799999999998935,-0.16757075,-0.45124584,-0.87108743,0.10567969,0.048258353,0.21059579
709,7.089999999999893,-0.18976717,-0.42014647,-0.86877024,0.087659165,0.017562376,0.18616119
710,7.099999999999893,-0.25129515,-0.37721714,-0.8816368,0.05589417,0.0038179078,0.17256944
711,7.109999999999893,-0.25763696,-0.38648596,-0.8762097,0.049785517,0.011148291,0.18112154
712,7.119999999999893,-0.24196534,-0.46325874,-0.8385246,0.0852157,0.009010263,0.19837849
713,7.129999999999892,-0.24196534,-0.46325874,-0.8385246,0.08170322,-0.026419923,0.20830505
714,7.139999999999892,-0.21678093,-0.5128348,-0.84206134,0.08170322,-0.026419923,0.20830505
715,7.149999999999892,-0.20025559,-0.5272868,-0.82370657,-0.008093964,-0.09789115,0.16035213
716,7.159999999999892,-0.24519724,-0.50856626,-0.8263287,-0.051923547,-0.11285736,0.12095132
717,7.169999999999892,-0.28794363,-0.49576062,-0.85175705,-0.06536258,-0.10445796,0.10369437
718,7.179999999999891,-0.28733385,-0.4850893,-0.86700183,-0.079870634,-0.106901415,0.09392053
719,7.189999999999891,-0.2675156,-0.47618634,-0.8591355,-0.098043874,-0.11438452,0.058337633
720,7.199999999999891,-0.27056456,-0.47228366,-0.8484642,-0.09773844,-0.11209377,0.016646078
721,7.209999999999891,-0.28135788,-0.47130796,-0.83931726,-0.09773844,-0.11209377,0.016646078
722,7.2199999999998905,-0.28373605,-0.48350382,-0.8377318,-0.07788532,-0.09865474,-0.043218717
723,7.22999999999989,-0.28111395,-0.49576062,-0.85315955,-0.087659165,-0.09987647,-0.04810564
724,7.23999999999989,-0.26403978,-0.51655453,-0.8376099,-0.087659165,-0.09987647,-0.04810564
725,7.24999999999989,-0.2680644,-0.5174692,-0.8240115,-0.12018774,-0.15027285,-0.088422745
726,7.25999999999989,-0.2680644,-0.5174692,-0.8240115,-0.12018774,-0.15027285,-0.088422745
727,7.269999999999889,-0.2860533,-0.48356482,-0.8513911,-0.10781772,-0.14523321,-0.111635625
728,7.279999999999889,-0.27440625,-0.4630758,-0.85492796,-0.12492194,-0.12110403,-0.15836681
729,7.289999999999889,-0.27440625,-0.4630758,-0.85492796,-0.12492194,-0.12110403,-0.15836681
730,7.299999999999889,-0.29044378,-0.45929506,-0.8644407,-0.13820826,-0.12232576,-0.17195857
731,7.309999999999889,-0.28672403,-0.46161228,-0.8473056,-0.14446963,-0.113926366,-0.1695151
732,7.319999999999888,-0.28397998,-0.474235,-0.8202918,-0.1301143,-0.07467828,-0.1611157
733,7.329999999999888,-0.27062553,-0.4941142,-0.83017033,-0.109650314,-0.042760566,-0.14996742
734,7.339999999999888,-0.27062553,-0.4941142,-0.83017033,-0.05497787,-0.0106901415,-0.09850202
735,7.349999999999888,-0.26221043,-0.4936264,-0.84035397,-0.05497787,-0.0106901415,-0.09850202
736,7.3599999999998875,-0.24318492,-0.48490632,-0.8948083,-0.05222898,-0.059406646,-0.087201014
737,7.369999999999887,-0.24318492,-0.48490632,-0.8948083,-0.05222898,-0.059406646,-0.087201014
738,7.379999999999887,-0.24318492,-0.48490632,-0.8948083,-0.061850104,-0.09132435,-0.09208794
739,7.389999999999887,-0.24946578,-0.4808817,-0.8490739,-0.08628472,-0.08659015,-0.08979719
740,7.399999999999887,-0.24745347,-0.4730154,-0.8199868,-0.07666359,-0.063224554,-0.08979719
741,7.4099999999998865,-0.26269826,-0.46575886,-0.80510795,-0.056199603,-0.03863723,-0.07391469
742,7.419999999999886,-0.27025968,-0.45844138,-0.7891924,-0.04046982,-0.027641652,-0.05421429
743,7.429999999999886,-0.25916147,-0.44618458,-0.784375,-0.008857546,-0.021227567,-0.014966198
744,7.439999999999886,-0.2531855,-0.43691576,-0.79803437,0.01038471,-0.003970624,0.013286319
745,7.449999999999886,-0.24696562,-0.4300251,-0.7946805,0.0125227375,0.018020526,0.0364992
746,7.459999999999885,-0.2514781,-0.43051293,-0.77766734,0.013286319,0.062002823,0.0571159
747,7.469999999999885,-0.2646496,-0.45051408,-0.7692522,0.035124753,0.22220223,0.10797043
748,7.479999999999885,-0.28965104,-0.49551672,-0.77431345,0.035124753,0.22220223,0.10797043
749,7.489999999999885,-0.29733443,-0.51557887,-0.77559406,0.11759156,0.2874121,0.14614952
750,7.4999999999998845,-0.3314218,-0.5318603,-0.76791066,0.11759156,0.2874121,0.14614952
751,7.509999999999884,-0.3314218,-0.5318603,-0.76791066,0.18005253,0.2939789,0.14278975
752,7.519999999999884,-0.32251883,-0.52015233,-0.7884607,0.26083946,0.31887165,0.12980886
753,7.529999999999884,-0.27300373,-0.49045542,-0.88334423,0.34284812,0.35338554,0.09712757
754,7.539999999999884,-0.1671439,-0.42508578,-0.9303591,0.2947425,0.27000242,0.051923547
755,7.5499999999998835,-0.13622746,-0.40990198,-0.962922,0.21135938,0.16447547,-0.019242255
756,7.559999999999883,-0.13622746,-0.40990198,-0.962922,0.21135938,0.16447547,-0.019242255
757,7.569999999999883,-0.14860623,-0.40185273,-0.9996925,0.12293663,0.078343466,-0.07315111
758,7.579999999999883,-0.17525412,-0.3902057,-0.974752,0.016340645,-0.020005837,-0.13347405
759,7.589999999999883,-0.22446433,-0.41465837,-0.91255325,-0.071776666,-0.14645495,-0.18478674
760,7.599999999999882,-0.23147692,-0.4311837,-0.87877077,-0.08017606,-0.16722436,-0.18967366
761,7.609999999999882,-0.24818522,-0.45703888,-0.85181797,-0.08017606,-0.16722436,-0.18967366
762,7.619999999999882,-0.24818522,-0.45703888,-0.85181797,-0.08246681,-0.06582073,-0.16081028
763,7.629999999999882,-0.28593132,-0.5277137,-0.7884607,-0.07040222,-0.04260785,-0.14248432
764,7.6399999999998816,-0.28715092,-0.5694845,-0.7397383,0.0035124752,0.02275473,-0.089491755
765,7.649999999999881,-0.28416294,-0.5933273,-0.7311402,0.091477074,0.04153884,-0.073303826
766,7.659999999999881,-0.26562527,-0.60259616,-0.7737037,0.20463985,0.09972375,-0.025045475
767,7.669999999999881,-0.20281671,-0.5702772,-0.8368171,0.20463985,0.09972375,-0.025045475
768,7.679999999999881,-0.16763173,-0.5467392,-0.8591965,0.09162979,0.018325957,-0.07437284
769,7.6899999999998805,-0.17153439,-0.5073467,-0.8821246,0.09162979,0.018325957,-0.07437284
770,7.69999999999988,-0.19562118,-0.48356482,-0.87681943,0.01740966,-0.022449298,-0.101556346
771,7.70999999999988,-0.23135497,-0.43691576,-0.84315896,-0.046883907,-0.07666359,-0.14095716
772,7.71999999999988,-0.23135497,-0.43691576,-0.84315896,-0.046883907,-0.07666359,-0.14095716
773,7.72999999999988,-0.24733151,-0.44709927,-0.79736364,-0.03604105,-0.07284568,-0.12614368
774,7.739999999999879,-0.24727054,-0.4753326,-0.7848629,-0.019242255,-0.040927973,-0.105374254
775,7.749999999999879,-0.24727054,-0.4753326,-0.7848629,-0.019242255,-0.040927973,-0.105374254
776,7.759999999999879,-0.24220926,-0.51039565,-0.7809602,-0.004886922,-0.007941248,-0.076052725
777,7.769999999999879,-0.22190319,-0.5286894,-0.7556538,-0.0065668016,0.017715093,-0.05299256
778,7.779999999999879,-0.20452413,-0.5338726,-0.7349819,-0.0053450707,0.02397646,-0.039553523
779,7.789999999999878,-0.21391493,-0.5379582,-0.76961803,0.0154243475,0.0106901415,-0.01863139
780,7.799999999999878,-0.21214652,-0.5380192,-0.8007784,0.0154243475,-0.025961773,0.021991149
781,7.809999999999878,-0.19409668,-0.53259206,-0.8074861,-0.022449298,-0.04932737,0.03283401
782,7.819999999999878,-0.19641389,-0.547227,-0.8059007,-0.06765333,-0.07162395,0.03390302
783,7.8299999999998775,-0.2089756,-0.5628987,-0.80919355,-0.099571034,-0.064446285,0.03726278
784,7.839999999999877,-0.22361061,-0.5746677,-0.80285174,-0.1255328,-0.04627304,0.05421429
785,7.849999999999877,-0.22361061,-0.5746677,-0.80285174,-0.1255328,-0.04627304,0.05421429
786,7.859999999999877,-0.22647662,-0.5751555,-0.8058397,-0.1255328,-0.04627304,0.05421429
787,7.869999999999877,-0.22854991,-0.5780825,-0.79510736,-0.13988814,0.007483099,0.13332134
788,7.879999999999876,-0.22696446,-0.51533496,-0.8430979,-0.13988814,-0.019242255,0.18860464
789,7.889999999999876,-0.22696446,-0.51533496,-0.8430979,-0.13988814,-0.019242255,0.18860464
790,7.899999999999876,-0.22306179,-0.48612595,-0.86389184,-0.14110987,-0.0571159,0.2144137
791,7.909999999999876,-0.22300081,-0.46136835,-0.8837101,-0.15683965,-0.08032878,0.2302962
792,7.919999999999876,-0.22306179,-0.4414282,-0.88980806,-0.18600847,-0.098807454,0.22036964
793,7.929999999999875,-0.2245253,-0.44380638,-0.8844418,-0.21273382,-0.12110403,0.20204368
794,7.939999999999875,-0.2289158,-0.45795357,-0.87651455,-0.236863,-0.15424347,0.18478674
795,7.949999999999875,-0.24306297,-0.47411305,-0.86523336,-0.25717425,-0.21166481,0.16661349
796,7.959999999999875,-0.2572711,-0.48539415,-0.85450107,-0.25717425,-0.21166481,0.16661349
797,7.9699999999998745,-0.28641915,-0.50356597,-0.8511472,-0.267559,-0.28130344,0.14721853
798,7.979999999999874,-0.3123353,-0.50807846,-0.8426101,-0.26984972,-0.28389964,0.13500121
799,7.989999999999874,-0.32514092,-0.5027732,-0.8325486,-0.26267207,-0.26435193,0.12644911
800,7.999999999999874,-0.33636108,-0.49551672,-0.834195,-0.24190263,-0.24465153,0.116675265
801,8.009999999999874,-0.34410545,-0.48539415,-0.84614694,-0.22479841,-0.22861631,0.1020145
802,8.019999999999873,-0.35288644,-0.47179583,-0.85175705,-0.2125811,-0.20906863,0.08124508
803,8.029999999999873,-0.35544756,-0.4610635,-0.8479763,-0.19425514,-0.18952094,0.06047566
804,8.039999999999873,-0.3506302,-0.44594067,-0.8466957,-0.1591304,-0.11362094,0.02367103
805,8.049999999999873,-0.33800754,-0.43081784,-0.85596454,-0.1591304,-0.11362094,0.02367103
806,8.059999999999873,-0.31623796,-0.4253907,-0.887003,-0.15806139,-0.08078693,0.011301007
807,8.069999999999872,-0.31623796,-0.4253907,-0.887003,-0.14844026,-0.03313944,-0.020616703
808,8.079999999999872,-0.31270117,-0.42636633,-0.89865,-0.14844026,-0.03313944,-0.020616703
809,8.089999999999872,-0.3088595,-0.4297812,-0.8961498,-0.13469578,-0.047647487,-0.03268129
810,8.099999999999872,-0.3088595,-0.4297812,-0.8961498,-0.11636983,-0.051159963,-0.031306844
811,8.109999999999872,-0.29940772,-0.41112155,-0.87681943,-0.055436023,-0.012980887,-0.017715093
812,8.119999999999871,-0.28483367,-0.4013039,-0.8748072,-0.03848451,0.015271631,-0.020158553
813,8.129999999999871,-0.27550387,-0.39977944,-0.8815758,-0.027641652,0.032375857,-0.032375857
814,8.139999999999871,-0.2783699,-0.40032822,-0.8879177,-0.011453724,0.018936822,-0.05421429
815,8.14999999999987,-0.28959006,-0.40380403,-0.8884665,-0.011453724,0.018936822,-0.05421429
816,8.15999999999987,-0.2911755,-0.40618226,-0.8738315,0.02687807,-0.029626964,-0.057421334
817,8.16999999999987,-0.2932488,-0.4056944,-0.860721,0.05024367,-0.018478673,-0.065973446
818,8.17999999999987,-0.2932488,-0.4056944,-0.860721,0.06963864,0.010842858,-0.07819075
819,8.18999999999987,-0.29983455,-0.40416992,-0.8349877,0.0926988,0.043982297,-0.09407325
820,8.19999999999987,-0.29983455,-0.40416992,-0.8349877,0.100029185,0.065973446,-0.10629055
821,8.20999999999987,-0.2968466,-0.42703712,-0.83029234,0.09132435,0.091477074,-0.11377365
822,8.21999999999987,-0.28410196,-0.44496498,-0.82553595,0.08246681,0.114689946,-0.10903945
823,8.229999999999869,-0.28532153,-0.45770964,-0.84053683,0.092240654,0.112399206,-0.09560041
824,8.239999999999869,-0.28501663,-0.45880726,-0.8702337,0.09621128,0.047647487,-0.062308256
825,8.249999999999869,-0.28202865,-0.43965977,-0.8412076,0.105068825,-0.008246681,-0.025198191
826,8.259999999999868,-0.28202865,-0.43965977,-0.8412076,0.105068825,-0.008246681,-0.025198191
827,8.269999999999868,-0.2886144,-0.41514617,-0.7811431,0.19394971,0.04718934,-0.010231993
828,8.279999999999868,-0.29019985,-0.40880433,-0.7738866,0.19394971,0.04718934,-0.010231993
829,8.289999999999868,-0.29019985,-0.40880433,-0.7738866,0.28496864,0.13927728,0.004581489
830,8.299999999999867,-0.24812423,-0.42770788,-0.82346267,0.32238412,0.20677789,0.025350908
831,8.309999999999867,-0.24812423,-0.42770788,-0.82346267,0.3043636,0.30665436,0.022449298
832,8.319999999999867,-0.22086655,-0.4806988,-0.8376099,0.3043636,0.30665436,0.022449298
833,8.329999999999867,-0.20769504,-0.49130917,-0.8310241,0.205098,0.34269542,0.004581489
834,8.339999999999867,-0.19464551,-0.4911872,-0.8240725,0.205098,0.34269542,0.004581489
835,8.349999999999866,-0.19263318,-0.48685768,-0.8334022,0.19715676,0.26328292,-0.00015271631
836,8.359999999999866,-0.2001946,-0.4806378,-0.8598672,0.19624045,0.226631,-0.004886922
837,8.369999999999866,-0.20251182,-0.47289345,-0.8745633,0.1797471,0.15088372,-0.024281893
838,8.379999999999866,-0.20306063,-0.46996644,-0.86925805,0.17363845,0.14095716,-0.027947085
839,8.389999999999866,-0.20879267,-0.4538679,-0.8441956,0.13637567,0.08093964,-0.06337727
840,8.399999999999865,-0.20604862,-0.45716083,-0.8260848,0.11927144,0.0917825,-0.06841691
841,8.409999999999865,-0.21818347,-0.47575948,-0.81864536,0.10552697,0.11362094,-0.063682705
842,8.419999999999865,-0.23257454,-0.5109445,-0.81888926,0.096516706,0.13683382,-0.033292156
843,8.429999999999865,-0.23550156,-0.52307934,-0.81193763,0.13316862,0.09941832,0.03436117
844,8.439999999999864,-0.23928225,-0.5469831,-0.8130962,0.13316862,0.09941832,0.03436117
845,8.449999999999864,-0.23928225,-0.5469831,-0.8130962,0.16646078,0.07391469,0.048258353
846,8.459999999999864,-0.23928225,-0.5469831,-0.8130962,0.1910481,0.056963183,0.05207626
847,8.469999999999864,-0.22013481,-0.4788694,-0.86785555,0.18860464,0.065515295,0.04352415
848,8.479999999999864,-0.19464551,-0.45002624,-0.895723,0.060322944,0.042760566,0.0012217305
849,8.489999999999863,-0.19745055,-0.44459912,-0.86462367,0.060322944,0.042760566,0.0012217305
850,8.499999999999863,-0.20915854,-0.45289227,-0.8559036,-0.010079277,-0.021227567,-0.032070424
851,8.509999999999863,-0.22117145,-0.46521008,-0.86852634,-0.010079277,-0.021227567,-0.032070424
852,8.519999999999863,-0.22647662,-0.46380752,-0.8734656,-0.019700404,-0.15439619,-0.07925977
853,8.529999999999863,-0.23537959,-0.46136835,-0.8628552,-0.0143553335,-0.1873829,-0.116980694
854,8.539999999999862,-0.24336785,-0.46136835,-0.84346384,-0.007941248,-0.19715676,-0.14508049
855,8.549999999999862,-0.2566613,-0.47600338,-0.8200479,-0.007941248,-0.19715676,-0.14508049
856,8.559999999999862,-0.28135788,-0.53551906,-0.80443716,-0.016187929,-0.106901415,-0.117438845
857,8.569999999999862,-0.28135788,-0.53551906,-0.80443716,-0.016187929,-0.106901415,-0.117438845
858,8.579999999999862,-0.29056573,-0.60143757,-0.8139499,-0.029626964,-0.01160644,-0.0346666
859,8.589999999999861,-0.2625763,-0.66052634,-0.7519951,-0.01038471,0.0032070426,0.0106901415
860,8.599999999999861,-0.2561735,-0.61509687,-0.7393724,0.09972375,-0.04230242,0.076358154
861,8.60999999999986,-0.24611193,-0.52064013,-0.7765087,0.10430524,-0.01786781,0.106901415
862,8.61999999999986,-0.2409287,-0.46020976,-0.79669285,-0.010842858,0.12308934,0.13622294
863,8.62999999999986,-0.24342884,-0.39355955,-0.82773125,-0.05665775,0.16187929,0.15775596
864,8.63999999999986,-0.25074634,-0.47258857,-0.83120704,-0.05665775,0.16187929,0.15775596
865,8.64999999999986,-0.23287943,-0.5705211,-0.8507814,-0.061850104,0.17165314,0.19440787
866,8.65999999999986,-0.2174517,-0.60698664,-0.86334306,-0.021227567,0.12797627,0.226631
867,8.66999999999986,-0.18287653,-0.5780825,-0.8755389,0.0154243475,0.009773844,0.17348573
868,8.67999999999986,-0.18287653,-0.5780825,-0.8755389,0.0154243475,0.009773844,0.17348573
869,8.68999999999986,-0.19281614,-0.51533496,-0.8949303,-0.0076358155,-0.090713486,0.06001751
870,8.699999999999859,-0.22812307,-0.44587967,-0.9160901,-0.0076358155,-0.090713486,0.06001751
871,8.709999999999859,-0.28208962,-0.3608747,-0.88358814,-0.15042557,-0.12095132,0.007788532
872,8.719999999999859,-0.27593073,-0.36739948,-0.807913,-0.15042557,-0.12095132,0.007788532
873,8.729999999999858,-0.27178416,-0.39941353,-0.7665081,-0.20082195,-0.090713486,-0.0012217305
874,8.739999999999858,-0.2769064,-0.4617343,-0.7531537,-0.15607607,-0.025809057,0.017256944
875,8.749999999999858,-0.2757478,-0.5222866,-0.784558,-0.10415252,0.05879578,0.049021937
876,8.759999999999858,-0.2619665,-0.56228894,-0.8234017,-0.09468412,0.074830994,0.06490443
877,8.769999999999857,-0.23165986,-0.5630816,-0.83090216,-0.09162979,0.010079277,0.05665775
878,8.779999999999857,-0.22586684,-0.5441171,-0.83882946,-0.07880162,-0.054519724,0.031306844
879,8.789999999999857,-0.23659918,-0.50283426,-0.8623674,-0.07070765,-0.11560625,-0.010079277
880,8.799999999999857,-0.2531855,-0.45911217,-0.8874298,-0.07070765,-0.11560625,-0.010079277
881,8.809999999999857,-0.2531855,-0.45911217,-0.8874298,-0.07070765,-0.11560625,-0.010079277
882,8.819999999999856,-0.2531855,-0.45911217,-0.89395463,-0.07620544,-0.15714508,-0.06490443
883,8.829999999999856,-0.29983455,-0.3942913,-0.79370487,-0.16676621,-0.088422745,-0.1600467
884,8.839999999999856,-0.29983455,-0.3942913,-0.79370487,-0.07238753,-0.09758572,-0.150731
885,8.849999999999856,-0.27934557,-0.40971902,-0.7859605,-0.07238753,-0.09758572,-0.150731
886,8.859999999999856,-0.24592897,-0.45953903,-0.8829783,-0.015882496,-0.13622294,-0.14660765
887,8.869999999999855,-0.23458686,-0.47624728,-0.9328593,0.008093964,-0.21303925,-0.1498147
888,8.879999999999855,-0.21421981,-0.48252818,-0.9691419,-0.050396383,-0.23411411,-0.17577648
889,8.889999999999855,-0.22635466,-0.4899676,-0.97060543,-0.050396383,-0.23411411,-0.17577648
890,8.899999999999855,-0.24111164,-0.4953338,-0.9512141,-0.050396383,-0.23411411,-0.17577648
891,8.909999999999854,-0.27184513,-0.5016756,-0.8978573,-0.17867808,-0.37064248,-0.27275133
892,8.919999999999854,-0.2906267,-0.5046026,-0.86877024,-0.17745635,-0.3633121,-0.27763826
893,8.929999999999854,-0.30995712,-0.5114323,-0.83181685,-0.14401148,-0.2556471,-0.26557365
894,8.939999999999854,-0.3077009,-0.51673746,-0.8127304,-0.11438452,-0.15409076,-0.226631
895,8.949999999999854,-0.295627,-0.52490866,-0.79644895,-0.09666943,-0.09407325,-0.19379699
896,8.959999999999853,-0.2830653,-0.5388729,-0.77614284,-0.043982297,-0.004428773,-0.099571034
897,8.969999999999853,-0.26855224,-0.54119015,-0.76132494,0.0018325958,0.034972034,-0.031001411
898,8.979999999999853,-0.25696623,-0.5361898,-0.75595874,0.06352998,0.06841691,0.058643065
899,8.989999999999853,-0.22976951,-0.5214329,-0.7529098,0.10827587,0.09315695,0.116217114
900,8.999999999999853,-0.21617115,-0.509176,-0.755349,0.16279559,0.13881913,0.16661349
901,9.009999999999852,-0.20928052,-0.44947743,-0.84474444,0.124005646,0.084910266,0.17150041
902,9.019999999999852,-0.20928052,-0.44947743,-0.84474444,0.124005646,0.084910266,0.17150041
903,9.029999999999852,-0.24702659,-0.3889861,-0.9082237,-0.0041233404,-0.0917825,0.0917825
904,9.039999999999852,-0.24702659,-0.3889861,-0.9082237,-0.0041233404,-0.0917825,0.0917825
905,9.049999999999851,-0.31221333,-0.36398467,-0.8887104,-0.087964594,-0.13148874,0.04138612
906,9.059999999999851,-0.32672638,-0.3626431,-0.75047064,-0.08933904,-0.070554934,-0.009162978
907,9.069999999999851,-0.324897,-0.39374247,-0.7218104,-0.01160644,0.02275473,-0.024892759
908,9.07999999999985,-0.3231896,-0.43417168,-0.72083473,0.044135015,0.08659015,-0.016187929
909,9.08999999999985,-0.30660325,-0.4853332,-0.7429092,0.09162979,0.11728613,0.0035124752
910,9.09999999999985,-0.27763817,-0.5286284,-0.7854727,0.13561209,0.12018774,0.028252518
911,9.10999999999985,-0.26013714,-0.5486296,-0.81675494,0.15775596,0.099571034,0.03940081
912,9.11999999999985,-0.24166043,-0.564911,-0.9065163,0.16417004,0.040927973,0.0421497
913,9.12999999999985,-0.23312336,-0.5518005,-0.9392012,0.11713341,-0.01786781,0.017715093
914,9.13999999999985,-0.23141594,-0.5132617,-0.9357863,0.06490443,-0.061086524,-0.013133603
915,9.14999999999985,-0.24019694,-0.485882,-0.89962566,0.011453724,-0.098043874,-0.053603426
916,9.15999999999985,-0.24629487,-0.47563753,-0.8813319,-0.00061086525,-0.10797043,-0.07070765
917,9.169999999999849,-0.27660152,-0.44984335,-0.84297603,-0.022296581,-0.12889257,-0.105068825
918,9.179999999999849,-0.2800773,-0.44453815,-0.8391343,-0.024740042,-0.12156218,-0.105068825
919,9.189999999999849,-0.27611366,-0.44795296,-0.8449273,-0.024892759,-0.09712757,-0.10888673
920,9.199999999999848,-0.2769064,-0.4552705,-0.8530986,-0.028710667,-0.07880162,-0.11026118
921,9.209999999999848,-0.26044202,-0.46825904,-0.83767086,-0.007330383,-0.005497787,-0.08231409
922,9.219999999999848,-0.26044202,-0.46825904,-0.83767086,-0.007330383,-0.005497787,-0.08231409
923,9.229999999999848,-0.24214828,-0.4831989,-0.80760807,0.019089539,0.04230242,-0.071318515
924,9.239999999999847,-0.25080732,-0.49588257,-0.80803496,0.076358154,0.076816306,-0.06246097
925,9.249999999999847,-0.25977126,-0.5008829,-0.83389014,0.105832405,0.05513059,-0.04627304
926,9.259999999999847,-0.25629544,-0.49752906,-0.84315896,0.10354166,0.04046982,-0.03772093
927,9.269999999999847,-0.25099024,-0.48576006,-0.8451712,0.09254608,0.024587326,-0.030390546
928,9.279999999999847,-0.25099024,-0.48576006,-0.8451712,0.09254608,0.024587326,-0.030390546
929,9.289999999999846,-0.25099024,-0.48576006,-0.8451712,0.09254608,0.024587326,-0.030390546
930,9.299999999999846,-0.24544115,-0.46374658,-0.831268,0.09254608,0.024587326,-0.030390546
931,9.309999999999846,-0.25105122,-0.43191543,-0.7707767,0.035888333,0.0729984,-0.033444874
932,9.319999999999846,-0.2573321,-0.4422209,-0.77217925,0.03436117,0.09132435,-0.02611449
933,9.329999999999846,-0.2573321,-0.4422209,-0.77217925,0.029168816,0.10476339,0.001985312
934,9.339999999999845,-0.27733323,-0.5154569,-0.77589893,0.026419923,0.12064589,0.03604105
935,9.349999999999845,-0.27525997,-0.5500321,-0.76815456,0.039553523,0.13912456,0.07651087
936,9.359999999999845,-0.2614177,-0.5821071,-0.77150846,0.063682705,0.15515977,0.12797627
937,9.369999999999845,-0.25592956,-0.5899125,-0.7771795,0.0720821,0.16142114,0.14385876
938,9.379999999999844,-0.21824445,-0.58680254,-0.7973026,0.09025534,0.15668693,0.18921551
939,9.389999999999844,-0.21824445,-0.58680254,-0.7973026,0.0852157,0.13836098,0.22235495
940,9.399999999999844,-0.19909698,-0.5511907,-0.82925564,0.07192938,0.112704635,0.23579398
941,9.409999999999844,-0.19848719,-0.54003155,-0.8503545,0.02565634,0.06001751,0.25289822
942,9.419999999999844,-0.20708527,-0.5309456,-0.8699898,-0.01450805,0.027947085,0.2576324
943,9.429999999999843,-0.2206836,-0.5188717,-0.8854175,-0.116980694,-0.033750303,0.26465738
944,9.439999999999843,-0.2309891,-0.50283426,-0.8871859,-0.1498147,-0.062002823,0.25961772
945,9.449999999999843,-0.24489233,-0.47661316,-0.87883174,-0.1498147,-0.062002823,0.25961772
946,9.459999999999843,-0.26946694,-0.44795296,-0.87017274,-0.18219055,-0.12568553,0.21685717
947,9.469999999999843,-0.2759917,-0.43045196,-0.86364794,-0.18432859,-0.14523321,0.20097467
948,9.479999999999842,-0.27995536,-0.4255736,-0.8623065,-0.18906279,-0.16126843,0.1777618
949,9.489999999999842,-0.2953831,-0.43545225,-0.87108743,-0.19975294,-0.18081611,0.14355333
950,9.499999999999842,-0.31325,-0.4619172,-0.87535596,-0.21792617,-0.18829921,0.11652254
951,9.509999999999842,-0.3204455,-0.48191833,-0.8761487,-0.2275473,-0.1872302,0.10797043
952,9.519999999999841,-0.3316657,-0.4999682,-0.8599282,-0.23976462,-0.182496,0.08582657
953,9.529999999999841,-0.3421541,-0.49752906,-0.83815867,-0.22143865,-0.16157386,0.06627888
954,9.539999999999841,-0.34959355,-0.48874804,-0.83004844,-0.20066923,-0.1479821,0.058948494
955,9.54999999999984,-0.35355723,-0.4668565,-0.83571947,-0.1591304,-0.11728613,0.046883907
956,9.55999999999984,-0.34813008,-0.44405028,-0.85931844,-0.12996158,-0.08781188,0.03481932
957,9.56999999999984,-0.34136137,-0.43715966,-0.85450107,-0.1226312,-0.07192938,0.02855795
958,9.57999999999984,-0.34136137,-0.43715966,-0.85450107,-0.116675265,-0.04138612,0.013897184
959,9.58999999999984,-0.34136137,-0.43715966,-0.85450107,-0.10705414,-0.01695151,0.00030543262
960,9.59999999999984,-0.3405077,-0.43368387,-0.8442565,-0.089949906,0.003970624,-0.0070249503
961,9.60999999999984,-0.3181893,-0.43368387,-0.8849907,-0.05589417,0.040775254,-0.016646078
962,9.61999999999984,-0.3047739,-0.43563515,-0.91163856,-0.048563786,0.037110064,-0.02275473
963,9.62999999999984,-0.28818756,-0.42581752,-0.91743153,-0.048563786,0.037110064,-0.02275473
964,9.639999999999839,-0.275138,-0.4159389,-0.9110898,-0.03313944,-0.032375857,-0.05421429
965,9.649999999999839,-0.275138,-0.4159389,-0.9110898,-0.026725354,-0.049480084,-0.06505715
966,9.659999999999838,-0.28178474,-0.41203624,-0.8843808,-0.022907447,-0.06169739,-0.07727446
967,9.669999999999838,-0.2819067,-0.41343874,-0.8707215,-0.022907447,-0.06169739,-0.07727446
968,9.679999999999838,-0.28105298,-0.4133778,-0.85663533,-0.021685716,-0.06291912,-0.08460484
969,9.689999999999838,-0.27763817,-0.41965863,-0.85017157,-0.019089539,-0.070249505,-0.09666943
970,9.699999999999838,-0.28093103,-0.42850062,-0.8573671,-0.020158553,-0.076358154,-0.10888673
971,9.709999999999837,-0.28410196,-0.44514793,-0.87133133,-0.037110064,-0.08384126,-0.12980886
972,9.719999999999837,-0.286907,-0.46368557,-0.8755389,-0.061239243,-0.118202426,-0.1518
973,9.729999999999837,-0.28757775,-0.46850294,-0.85212296,-0.05971208,-0.14263703,-0.1591304
974,9.739999999999837,-0.29190728,-0.45911217,-0.8127913,-0.020463986,-0.16065755,-0.16615535
975,9.749999999999837,-0.29904184,-0.44398934,-0.79016805,0.027488936,-0.16035213,-0.17684549
976,9.759999999999836,-0.32410428,-0.41392657,-0.79126567,0.027488936,-0.16035213,-0.17684549
977,9.769999999999836,-0.3275801,-0.39221802,-0.8451712,0.027488936,-0.16035213,-0.17684549
978,9.779999999999836,-0.31142062,-0.40624323,-0.8448054,0.09666943,0.08170322,-0.183565
979,9.789999999999836,-0.31142062,-0.40624323,-0.8448054,0.09666943,0.08170322,-0.183565
980,9.799999999999836,-0.3070301,-0.4247199,-0.837244,0.089186326,0.091477074,-0.183565
981,9.809999999999835,-0.30544463,-0.48258913,-0.8126084,0.11652254,0.036651913,-0.1647809
982,9.819999999999835,-0.29861498,-0.47575948,-0.81559634,0.19501872,-0.038331795,-0.09682214
983,9.829999999999835,-0.29385862,-0.4591731,-0.81620616,0.20082195,-0.0053450707,-0.08827003
984,9.839999999999835,-0.2847727,-0.43715966,-0.8095594,0.19929479,0.044593163,-0.09712757
985,9.849999999999834,-0.2912365,-0.41965863,-0.8093765,0.19043724,0.10430524,-0.116980694
986,9.859999999999834,-0.2912365,-0.4288665,-0.8038884,0.19639318,0.15195273,-0.15622878
987,9.869999999999834,-0.29891986,-0.46350268,-0.7938268,0.24770586,0.2302962,-0.21991149
988,9.879999999999834,-0.32209197,-0.4909433,-0.801998,0.3098614,0.30390546,-0.2612976
989,9.889999999999834,-0.31898203,-0.5124079,-0.8031566,0.35216382,0.3724751,-0.2576324
990,9.899999999999833,-0.28873634,-0.52923816,-0.8011443,0.37094793,0.43127087,-0.21013765
991,9.909999999999833,-0.2720281,-0.53984857,-0.8047421,0.36713,0.4361578,-0.17837265
992,9.919999999999833,-0.25330746,-0.5719236,-0.8085838,0.31688634,0.3651447,-0.0926988
993,9.929999999999833,-0.2719671,-0.5603376,-0.7981563,0.3100141,0.29077184,-0.06429356
994,9.939999999999833,-0.27550387,-0.53600687,-0.8043762,0.32727104,0.26282477,-0.045814894
995,9.949999999999832,-0.23635526,-0.47112507,-0.8564524,0.30604348,0.26267207,0.004276057
996,9.959999999999832,-0.119946025,-0.43240327,-0.86889213,0.30604348,0.26267207,0.004276057
997,9.969999999999832,-0.119946025,-0.43240327,-0.86889213,0.20326541,0.258396,-0.014660766
998,9.979999999999832,-0.12476338,-0.4816135,-0.8483422,0.11438452,0.21380283,-0.037110064
999,9.989999999999831,-0.187328,-0.5837535,-0.81559634,0.07788532,0.17577648,-0.03604105
1000,9.999999999999831,-0.19409668,-0.57844836,-0.8249872,0.063682705,0.106137834,-0.01863139
