id,timestamp,acc_x,acc_y,acc_z,gyro_x,gyro_y,gyro_z
0,0,4.6225867,-0.07043094,1.4744153,4.067752,0.8895725,-7.820755
1,0.01,4.6225867,-0.07043094,1.4744153,4.067752,0.8895725,-7.820755
2,0.02,5.0076094,-0.898833,0.63863486,3.5191946,1.057255,-7.6585703
3,0.03,4.4101963,-1.4867331,-0.06726002,3.5191946,1.057255,-7.6585703
4,0.04,3.749792,-1.7834578,0.006768687,2.6151142,0.3903429,-7.3972726
5,0.05,3.749792,-1.7834578,0.006768687,2.6151142,0.3903429,-7.3972726
6,0.060000000000000005,2.9084623,-1.9604802,0.3606308,2.047162,-0.0030543262,-6.968598
7,0.07,2.9084623,-1.9604802,0.3606308,2.8428142,-0.10293079,-6.1117067
8,0.08,1.1867765,-2.426849,0.79992473,4.756808,-0.36651915,-5.260466
9,0.09,-0.56271577,-2.9398057,-0.01975725,4.756808,-0.36651915,-5.260466
10,0.09999999999999999,-0.56271577,-2.9398057,-0.01975725,5.3757668,-1.0590876,-3.37106
11,0.10999999999999999,-1.1659217,-2.9848084,-0.41459736,5.3757668,-1.0590876,-3.37106
12,0.11999999999999998,-1.6480839,-2.9637096,-0.81199855,4.652197,-1.1354458,-1.6710218
13,0.12999999999999998,-1.6480839,-2.9637096,-0.81199855,4.652197,-1.1354458,-1.6710218
14,0.13999999999999999,-1.3863004,-3.137866,-1.0587202,0.7997753,-0.27916542,4.044844
15,0.15,-1.1199434,-3.1479886,-0.77522814,-0.118202426,-0.27412578,5.587737
16,0.16,-0.7138221,-3.193357,-0.51228595,-0.6908886,-0.28405234,6.9446216
17,0.17,-0.15439926,-3.2237856,-0.2792236,-0.93309665,-0.38881573,8.054411
18,0.18000000000000002,1.2320231,-2.886632,-0.102810875,-0.86437434,-0.6104071,8.95727
19,0.19000000000000003,1.4532555,-2.6744852,-0.17196125,-0.7104363,-0.5196936,9.306532
20,0.20000000000000004,1.4118507,-2.4542286,-0.26178357,-1.0913107,-0.041233405,9.308365
21,0.21000000000000005,1.4118507,-2.4542286,-0.26178357,-1.0913107,-0.041233405,9.308365
22,0.22000000000000006,1.4118507,-2.4542286,-0.26178357,-2.4992025,0.6774496,10.10142
23,0.23000000000000007,1.2578174,-2.3948958,-0.29623678,-1.6123788,0.30741793,9.549503
24,0.24000000000000007,0.9859112,-2.546734,-0.31367683,-4.756502,1.1259774,11.739455
25,0.25000000000000006,1.5713111,-2.7260127,-0.057564333,-5.9189787,1.0315987,13.109932
26,0.26000000000000006,3.593807,-2.4410572,0.5542397,-6.42111,0.65484756,13.787381
27,0.2700000000000001,3.593807,-2.4410572,0.5542397,-6.42111,0.65484756,13.787381
28,0.2800000000000001,6.9712605,-0.9968264,1.56003,-5.753129,1.218218,12.372618
29,0.2900000000000001,7.1313915,0.4844185,2.0331674,-4.373795,2.544101,8.558833
30,0.3000000000000001,6.158835,0.9577388,2.1096961,-3.8722749,2.0602958,7.0237284
31,0.3100000000000001,5.8179,1.2081193,2.2762303,-3.8722749,2.0602958,7.0237284
32,0.3200000000000001,6.1458464,1.4801472,2.5690522,-3.0256155,1.0213667,5.8479657
33,0.3300000000000001,6.03084,1.7563219,2.5991151,-2.5587618,1.449125,5.0723195
34,0.34000000000000014,5.0535264,2.0648766,2.2146416,-1.7695239,2.164601,2.8283062
35,0.35000000000000014,4.208355,2.0536563,2.019691,-1.536326,2.271197,2.1919372
36,0.36000000000000015,3.5286815,1.9240757,1.9686514,-0.9483683,2.2041545,1.4679092
37,0.37000000000000016,2.7353425,1.9632243,2.0245695,0.30634892,1.5787812,0.7725918
38,0.38000000000000017,2.7353425,1.9632243,2.0245695,1.3029755,0.98868537,0.3555236
39,0.3900000000000002,2.2265935,1.964261,1.5155762,3.085175,0.19685133,-0.45937067
40,0.4000000000000002,2.0335941,2.011093,1.1402494,3.460246,0.25350907,-0.7790059
41,0.4100000000000002,1.7688228,2.0668888,0.67156357,3.6754234,0.76174897,-1.370629
42,0.4200000000000002,1.7688228,2.0668888,0.67156357,3.6754234,0.76174897,-1.370629
43,0.4300000000000002,1.2553172,1.7987026,0.10927467,3.252552,1.1339186,-2.8515189
44,0.4400000000000002,1.1641533,1.6642435,0.14561825,3.377932,0.63239825,-3.3012686
45,0.45000000000000023,1.1561041,1.463561,0.18891345,3.377932,0.63239825,-3.3012686
46,0.46000000000000024,1.2083021,1.3234918,0.14561825,3.9480221,-1.1113166,-4.4354925
47,0.47000000000000025,1.337639,1.2101926,0.17482726,3.9480221,-1.1113166,-4.4354925
48,0.48000000000000026,1.5644815,1.0540859,0.29891986,3.5845573,-1.6727017,-5.222134
49,0.49000000000000027,2.0688403,0.8601112,0.52807957,3.2284229,-1.3741413,-5.667302
50,0.5000000000000002,2.345198,0.7501047,0.64235455,3.0456214,-1.0291553,-6.0576453
51,0.5100000000000002,2.8658378,0.48204032,0.8477324,2.8582385,-0.4448626,-7.0399165
52,0.5200000000000002,3.0348113,0.32355547,0.9629831,2.8582385,-0.4448626,-7.0399165
53,0.5300000000000002,3.3320236,0.11403105,1.1512867,3.1323643,-0.5497787,-8.10328
54,0.5400000000000003,4.443003,-0.35813063,1.4703296,3.2621732,-0.74204856,-8.258287
55,0.5500000000000003,4.443003,-0.35813063,1.4703296,3.7129917,-1.426065,-8.826392
56,0.5600000000000003,4.910774,-0.70266294,1.4919163,3.9463422,-1.7314975,-9.16863
57,0.5700000000000003,5.195913,-1.6810127,0.74949497,4.1567855,-1.9219347,-9.284082
58,0.5800000000000003,5.195913,-1.6810127,0.74949497,4.1239514,-1.7434094,-8.93757
59,0.5900000000000003,4.645454,-2.2091534,-0.11153089,2.1383338,-1.430341,-8.310211
60,0.6000000000000003,4.1546936,-2.6236897,0.2789797,0.36545014,-1.2431108,-7.8940587
61,0.6100000000000003,3.5145953,-2.880351,0.64558643,-0.4457789,-0.6252206,-7.5884733
62,0.6200000000000003,2.435203,-3.1400614,1.0687209,-0.64919704,0.40546182,-7.2589116
63,0.6300000000000003,1.9560897,-3.2512872,1.185679,-0.42760566,0.75976366,-7.083899
64,0.6400000000000003,0.35575247,-3.6667383,0.9973753,1.2478449,0.86834496,-6.1208696
65,0.6500000000000004,-0.40849942,-3.8483346,0.7063827,2.4584272,-0.01817324,-5.0292535
66,0.6600000000000004,-1.1453718,-3.9213262,0.34172726,3.0066788,-0.42959097,-4.201989
67,0.6700000000000004,-2.242692,-3.7761347,-0.27678445,3.3863316,-0.5323691,-1.9518672
68,0.6800000000000004,-2.488011,-3.7725372,-0.5136885,3.3863316,-0.5323691,-1.9518672
69,0.6900000000000004,-2.488011,-3.7725372,-0.5136885,3.3863316,-0.5323691,-1.9518672
70,0.7000000000000004,-2.488011,-3.7725372,-0.5136885,3.3863316,-0.5323691,-1.9518672
71,0.7100000000000004,-2.488011,-3.7725372,-0.5136885,3.3863316,-0.5323691,-1.9518672
72,0.7200000000000004,-2.4261172,-3.7379622,-1.0821973,-0.8929323,-0.2003638,9.718866
73,0.7300000000000004,0.30568856,-3.5738673,-0.45844138,-1.1716396,-0.16203201,10.423957
74,0.7400000000000004,1.6868666,-3.099632,-0.37538776,-1.594511,-0.06291912,10.7365675
75,0.7500000000000004,1.6868666,-3.099632,-0.37538776,-1.594511,-0.06291912,10.7365675
76,0.7600000000000005,1.6868666,-3.099632,-0.37538776,-1.594511,-0.06291912,10.7365675
77,0.7700000000000005,1.6868666,-3.099632,-0.37538776,-1.594511,-0.06291912,10.7365675
78,0.7800000000000005,1.5712502,-1.9471258,-0.17141244,-3.1038063,1.0705414,9.492846
79,0.7900000000000005,1.5439925,-1.9063917,-0.050856624,-4.545601,0.26083946,9.504299
80,0.8000000000000005,1.5439925,-1.9063917,-0.050856624,-4.545601,0.26083946,9.504299
81,0.8100000000000005,1.5439925,-1.9063917,-0.050856624,-4.545601,0.26083946,9.504299
82,0.8200000000000005,1.5439925,-1.9063917,-0.050856624,-4.545601,0.26083946,9.504299
83,0.8300000000000005,1.5439925,-1.9063917,-0.050856624,-4.545601,0.26083946,9.504299
84,0.8400000000000005,6.097734,-0.07585809,1.5083196,-3.0314188,-1.8664987,9.770943
85,0.8500000000000005,6.097734,-0.07585809,1.5083196,-0.9593639,-1.3968961,8.205142
86,0.8600000000000005,5.620877,0.84053683,0.37532678,-0.3465133,-0.37690386,7.035335
87,0.8700000000000006,5.184144,0.99463123,0.33495858,-2.0613647,1.0538952,5.571244
88,0.8800000000000006,4.994621,1.1567138,0.6249145,-3.1395419,1.7765489,5.287497
89,0.8900000000000006,4.9544964,1.3551401,0.8681604,-3.5430183,2.1038198,4.7368016
90,0.9000000000000006,4.619172,1.4728909,1.1391518,-3.338073,1.8018998,3.6212091
91,0.9100000000000006,4.081031,1.5024657,1.3692871,-2.422997,0.6769914,2.5708263
92,0.9200000000000006,3.6656408,1.5087465,1.3796537,-1.6612481,-0.04520403,2.0917554
93,0.9300000000000006,3.1035957,1.4902089,1.09793,0.26511553,-0.8927795,0.98547834
94,0.9400000000000006,2.8436415,1.5003314,0.80571777,0.26511553,-0.8927795,0.98547834
95,0.9500000000000006,2.8436415,1.5003314,0.80571777,0.5688683,-0.19868392,0.3043636
96,0.9600000000000006,2.455753,1.5011241,0.597169,0.5145013,0.68126744,-0.33322698
97,0.9700000000000006,1.78547,1.6044229,0.34794715,0.31780264,1.8371773,-1.0952814
98,0.9800000000000006,1.4068503,1.644791,0.30666426,0.49602258,2.4437664,-1.7939585
99,0.9900000000000007,1.0343287,1.6445472,0.17574196,0.8017606,2.5097399,-2.208278
100,1.0000000000000007,0.7533366,1.6049107,0.0705529,1.266171,2.0517437,-2.656042
101,1.0100000000000007,0.7533366,1.6049107,0.0705529,1.266171,2.0517437,-2.656042
102,1.0200000000000007,0.58113146,1.6013129,0.03963646,1.5500705,1.6161968,-2.8922942
103,1.0300000000000007,0.58113146,1.6013129,0.03963646,1.5500705,1.6161968,-2.8922942
104,1.0400000000000007,0.37105823,1.3062347,-0.08018761,1.8377881,-0.00015271631,-3.4588718
105,1.0500000000000007,0.5082614,1.1659827,-0.020062147,1.4672983,0.0010690142,-3.5761578
106,1.0600000000000007,0.6411349,1.0782946,0.05256404,1.2244794,0.10308351,-3.663817
107,1.0700000000000007,1.0379264,0.94907975,0.3246531,0.91797775,0.39599338,-3.9935315
108,1.0800000000000007,1.2140952,0.9066383,0.42782986,0.914618,0.4775439,-4.160298
109,1.0900000000000007,1.9947506,0.7584589,0.88334423,1.3643675,0.4436409,-4.9646544
110,1.1000000000000008,2.2933044,0.6342443,1.0871977,1.9727893,0.38820487,-5.4658694
111,1.1100000000000008,2.6213725,0.2828214,1.0460366,3.0940325,0.48670688,-6.2862616
112,1.1200000000000008,2.6213725,0.2828214,1.0460366,3.0940325,0.48670688,-6.2862616
113,1.1300000000000008,2.8763874,0.24025792,1.1134796,3.7059667,0.14172074,-6.157369
114,1.1400000000000008,5.0203543,-0.17165637,1.2345233,3.7059667,0.14172074,-6.157369
115,1.1500000000000008,5.0203543,-0.17165637,1.2345233,4.149913,0.0076358155,-6.2738914
116,1.1600000000000008,6.241523,-0.7040655,0.34934965,4.159229,0.03604105,-6.8380256
117,1.1700000000000008,6.241523,-0.7040655,0.34934965,4.159229,0.03604105,-6.8380256
118,1.1800000000000008,6.241523,-0.7040655,0.34934965,4.159229,0.03604105,-6.8380256
119,1.1900000000000008,4.877297,-2.3346484,0.28166276,0.7049385,-0.2191479,-7.784867
120,1.2000000000000008,3.9233997,-2.7607708,0.9824963,-1.320996,0.3193298,-8.0994625
121,1.2100000000000009,3.0556662,-3.0149322,1.64162,-0.23243423,0.028710667,-7.8540473
122,1.2200000000000009,2.4017255,-3.0374944,1.9360276,1.5248724,-0.68126744,-7.68102
123,1.2300000000000009,0.7893143,-3.152318,1.0124371,6.0231314,-4.159992,-7.1196346
124,1.2400000000000009,0.12610492,-3.1579282,0.25489292,7.1109295,-5.9954896,-6.6233063
125,1.2500000000000009,-0.39093745,-3.000297,-0.49923643,6.7299023,-6.57123,-5.645769
126,1.260000000000001,-0.5163716,-2.8938274,-0.8601112,5.2369475,-5.618433,-4.658458
127,1.270000000000001,-1.1008569,-2.8753507,-0.75156826,0.89720833,-1.5141822,-2.3477077
128,1.280000000000001,-1.53076,-2.8966935,-0.5025903,-0.61117065,-0.124005646,-0.978148
129,1.290000000000001,-1.53076,-2.8966935,-0.5025903,-0.61117065,-0.124005646,-0.978148
130,1.300000000000001,-1.8254724,-2.9118161,0.048112564,-1.0341948,-0.88270026,1.7369953
131,1.310000000000001,-1.5539931,-2.8782167,0.27849188,-1.0341948,-0.88270026,1.7369953
132,1.320000000000001,-1.161958,-2.834007,0.38130274,0.05421429,-1.4624114,4.4683266
133,1.330000000000001,-0.9867649,-2.7225978,0.29398057,0.46639562,-1.2240212,5.3213997
134,1.340000000000001,-0.9867649,-2.7225978,0.29398057,0.46639562,-1.2240212,5.3213997
135,1.350000000000001,-0.58960754,-2.5250254,-0.10799411,0.8147415,-0.92485,7.129256
136,1.360000000000001,-0.33690992,-2.4334347,-0.28934616,0.6375906,-0.7855727,7.911774
137,1.370000000000001,0.26641798,-2.291902,-0.46240503,0.6375906,-0.7855727,7.911774
138,1.380000000000001,0.38002217,-2.2668395,-0.47716197,-0.2518292,-0.15118915,8.980024
139,1.390000000000001,1.1179311,-2.0586567,-0.64583033,-0.2518292,-0.15118915,8.980024
140,1.400000000000001,1.3759949,-2.0142028,-0.64375705,-2.9179506,1.4395039,9.7078705
141,1.410000000000001,1.3759949,-2.0142028,-0.64375705,-2.9179506,1.4395039,9.7078705
142,1.420000000000001,1.3759949,-2.0142028,-0.64375705,-2.9179506,1.4395039,9.7078705
143,1.430000000000001,1.5577128,-1.9927382,-0.5486296,-4.4324384,1.2974777,11.615908
144,1.440000000000001,4.5680714,-1.1409202,0.77315485,-2.567314,0.42180246,11.599567
145,1.450000000000001,6.2414007,-0.36563107,1.1517135,-2.567314,0.42180246,11.599567
146,1.460000000000001,6.2414007,-0.36563107,1.1517135,-2.567314,0.42180246,11.599567
147,1.470000000000001,6.2414007,-0.36563107,1.1517135,-2.567314,0.42180246,11.599567
148,1.480000000000001,6.2414007,-0.36563107,1.1517135,-2.567314,0.42180246,11.599567
149,1.490000000000001,5.414828,1.6403396,0.775716,2.2084305,-0.2750421,2.5966353
150,1.500000000000001,4.2546387,1.6293634,0.19940189,2.44285,-0.052839845,2.4405594
151,1.5100000000000011,3.7689395,1.9753592,-0.68003964,0.31230485,1.6566665,2.1558962
152,1.5200000000000011,3.7689395,1.9753592,-0.68003964,0.31230485,1.6566665,2.1558962
153,1.5300000000000011,3.7689395,1.9753592,-0.68003964,0.31230485,1.6566665,2.1558962
154,1.5400000000000011,3.7689395,1.9753592,-0.68003964,0.31230485,1.6566665,2.1558962
155,1.5500000000000012,2.3530033,1.9424914,0.12628786,-1.1236867,1.1406381,-0.4531093
156,1.5600000000000012,1.1278098,1.9065137,0.5228354,-0.01863139,0.49846604,-1.0955868
157,1.5700000000000012,0.6119259,1.8748655,0.31142062,0.7144069,0.28878653,-1.5366315
158,1.5800000000000012,0.2550149,1.8232162,0.10677453,1.0005972,0.27550024,-1.8442022
159,1.5900000000000012,-0.053417753,1.7530291,-0.05921077,1.0352639,0.37415496,-2.053729
160,1.6000000000000012,-0.28202865,1.6782078,-0.163912,0.8755226,0.5195409,-2.1604776
161,1.6100000000000012,-0.4136217,1.5264305,-0.124336526,0.45769078,0.7328856,-2.2018638
162,1.6200000000000012,-0.41276798,1.5050877,-0.09531044,0.37400225,0.7872526,-2.203849
163,1.6300000000000012,-0.41276798,1.5050877,-0.09531044,0.37400225,0.7872526,-2.203849
164,1.6400000000000012,-0.040795065,1.2450117,0.29995653,0.37400225,0.7872526,-2.203849
165,1.6500000000000012,-0.040795065,1.2450117,0.29995653,0.8333729,0.84696466,-2.4985917
166,1.6600000000000013,-0.040795065,1.2450117,0.29995653,0.8333729,0.84696466,-2.4985917
167,1.6700000000000013,1.6251558,0.9418842,0.58942467,1.5723672,1.0616838,-3.2446108
168,1.6800000000000013,1.6251558,0.9418842,0.58942467,2.5926647,1.0624474,-4.479933
169,1.6900000000000013,1.990604,0.96749544,0.58881485,2.5926647,1.0624474,-4.479933
170,1.7000000000000013,3.044141,0.9236514,0.5433854,3.0715833,0.66523224,-5.2031975
171,1.7100000000000013,3.7746716,0.81340116,0.62125576,3.2560644,0.19501872,-5.3236904
172,1.7200000000000013,3.7746716,0.81340116,0.62125576,3.7194057,-0.31581733,-5.3394203
173,1.7300000000000013,5.394827,0.64778167,0.5805827,3.7194057,-0.31581733,-5.3394203
174,1.7400000000000013,6.9505277,-0.1515942,-0.60448647,2.5696046,-0.91858864,-6.713104
175,1.7500000000000013,6.6838045,-0.7077242,-0.7065656,0.90087354,-0.9277516,-7.473631
176,1.7600000000000013,6.1168814,-1.3759339,-0.5500321,-0.8857546,-0.4269948,-7.8172426
177,1.7700000000000014,5.0774302,-2.037436,0.025672229,-2.65818,0.7237226,-7.885659
178,1.7800000000000014,3.9345586,-2.4483745,0.9519458,-2.8742738,1.6368134,-7.7330956
179,1.7900000000000014,3.0012727,-2.6098473,1.4791716,-2.8742738,1.6368134,-7.7330956
180,1.8000000000000014,2.1696997,-2.868216,1.5378336,0.8781188,1.3930782,-7.0648093
181,1.8100000000000014,0.59954715,-3.2673857,0.7512633,3.5767686,-0.1769982,-6.4652452
182,1.8200000000000014,-0.039880376,-3.4054427,0.27776012,4.323246,-0.9964739,-5.9127173
183,1.8300000000000014,-0.69815046,-3.4494696,-0.31166452,4.476115,-1.7214183,-4.923879
184,1.8400000000000014,-1.4270345,-3.3701966,-0.7882167,3.5483634,-1.8104519,-3.4663548
185,1.8500000000000014,-1.4270345,-3.3701966,-0.7882167,2.1664336,-1.0296134,-1.9746219
186,1.8600000000000014,-1.6213751,-3.4082475,-0.88084406,1.0285443,-0.19150625,-0.8011498
187,1.8700000000000014,-2.0864632,-3.51551,-0.46069762,-0.42348233,0.20021108,1.0500773
188,1.8800000000000014,-2.0864632,-3.51551,-0.46069762,-0.9665415,-0.09010262,3.374725
189,1.8900000000000015,-1.7198564,-3.3744652,-0.20440216,-0.7341073,-0.38744128,5.061935
190,1.9000000000000015,-1.3487372,-3.1856737,-0.23757485,-0.7341073,-0.38744128,5.061935
191,1.9100000000000015,-0.75412935,-2.9788325,-0.40715793,-0.11927144,-0.88147855,7.3887205
192,1.9200000000000015,-0.31471348,-2.7407696,-0.5772288,-0.117438845,-1.0390818,8.100073
193,1.9300000000000015,0.24922185,-2.4683146,-0.73571366,-0.52549684,-0.99189246,8.686962
194,1.9400000000000015,0.82267,-2.172566,-0.78724104,-1.2938126,-0.6826419,8.946274
195,1.9500000000000015,1.1865326,-1.9388937,-0.8064495,-2.0743456,-0.32375857,8.947343
196,1.9600000000000015,1.5705794,-1.7203442,-0.7326647,-3.1412218,0.061086524,8.85327
197,1.9700000000000015,1.8263872,-1.5843607,-0.6070476,-3.9232821,0.27473664,8.863502
198,1.9800000000000015,2.2817795,-1.4100822,-0.1806203,-4.5459065,0.1563815,9.0850935
199,1.9900000000000015,3.0783503,-1.1686656,0.45838037,-4.358371,-0.41325033,9.372505
200,2.0000000000000013,4.2545166,-0.7327257,1.1377493,-3.3527339,-1.1073459,9.454972
201,2.010000000000001,5.5191636,-0.072138354,1.3572134,-1.500285,-1.3017539,8.831431
202,2.020000000000001,6.015107,0.7674228,0.82754827,-0.25793785,-0.4202753,7.0371675
203,2.0300000000000007,6.0955386,1.4106311,0.48661375,-0.7078401,0.56505036,6.007554
204,2.0400000000000005,6.0955386,1.4106311,0.48661375,-0.7078401,0.56505036,6.007554
205,2.0500000000000003,5.4983697,1.8984034,0.55161756,-2.0578523,2.3889413,3.0285172
206,2.06,4.4194045,1.8155328,0.63150024,-2.0013473,2.0755675,1.5352571
207,2.07,3.533438,1.6781467,0.69156474,-1.7869335,1.5399913,0.7828238
208,2.0799999999999996,2.8677893,1.5501515,0.8043762,-1.3617713,1.0975721,0.30772337
209,2.0899999999999994,2.8677893,1.5501515,0.8043762,-1.3617713,1.0975721,0.30772337
210,2.099999999999999,2.8677893,1.5501515,0.8043762,-1.3617713,1.0975721,0.30772337
211,2.109999999999999,2.8677893,1.5501515,0.8043762,-1.3617713,1.0975721,0.30772337
212,2.1199999999999988,2.8677893,1.5501515,0.8043762,-1.3617713,1.0975721,0.30772337
213,2.1299999999999986,2.8677893,1.5501515,0.8043762,0.071776666,1.5109752,-0.29535335
214,2.1399999999999983,2.8677893,1.5501515,0.8043762,0.071776666,1.5109752,-0.29535335
215,2.149999999999998,0.5481417,1.6972332,0.06299148,0.17684549,1.7476854,-0.75808376
216,2.159999999999998,0.5481417,1.6972332,0.06299148,0.17684549,1.7476854,-0.75808376
217,2.1699999999999977,0.5481417,1.6972332,0.06299148,0.17684549,1.7476854,-0.75808376
218,2.1799999999999975,0.5481417,1.6972332,0.06299148,0.17684549,1.7476854,-0.75808376
219,2.1899999999999973,-0.12872702,1.5652742,0.17964463,1.5465581,0.3529274,-2.1053472
220,2.199999999999997,-0.093785964,1.4648416,0.10476221,1.7121025,0.14492778,-2.2783747
221,2.209999999999997,0.011525063,1.3915446,0.14714272,1.7253889,0.07162395,-2.3612995
222,2.2199999999999966,0.42508578,1.323126,0.21306121,1.7090483,0.036957346,-2.6572638
223,2.2299999999999964,0.42508578,1.323126,0.21306121,1.7090483,0.036957346,-2.6572638
224,2.239999999999996,0.42508578,1.323126,0.21306121,1.7090483,0.036957346,-2.6572638
225,2.249999999999996,0.42508578,1.323126,0.21306121,1.7090483,0.036957346,-2.6572638
226,2.259999999999996,0.42508578,1.323126,0.21306121,1.7090483,0.036957346,-2.6572638
227,2.2699999999999956,2.7000356,1.0626229,0.90322345,2.5057693,0.004428773,-5.5967474
228,2.2799999999999954,3.796075,0.86620915,1.0886611,2.3808472,0.0154243475,-5.8227677
229,2.289999999999995,5.0189514,0.65955067,1.4270955,2.6045766,-0.07467828,-5.851478
230,2.299999999999995,5.0189514,0.65955067,1.4270955,2.6045766,-0.07467828,-5.851478
231,2.3099999999999947,5.9314437,0.5402144,1.390386,2.8418977,-0.04428773,-6.032447
232,2.3199999999999945,6.589287,0.09372498,1.0384142,3.018896,-0.015882496,-6.5941377
233,2.3299999999999943,6.589287,0.09372498,1.0384142,3.018896,-0.015882496,-6.5941377
234,2.339999999999994,6.589287,0.09372498,1.0384142,2.6540568,0.07727446,-7.173085
235,2.349999999999994,5.4016566,-2.0045073,0.24245316,0.601855,0.573297,-7.9490366
236,2.3599999999999937,2.180981,-3.0351162,0.9849965,1.7325666,0.7257079,-7.1362805
237,2.3699999999999934,2.180981,-3.0351162,0.9849965,1.7325666,0.7257079,-7.1362805
238,2.3799999999999932,1.481367,-3.1811001,0.7385187,3.7215438,-0.7440339,-5.9713607
239,2.389999999999993,0.42618343,-3.4121501,0.17818113,3.7215438,-0.7440339,-5.9713607
240,2.399999999999993,-0.24281906,-3.4554455,-0.16811956,3.8959458,-1.3006848,-5.123785
241,2.4099999999999926,-1.2555611,-3.3506222,-0.64442784,2.48164,-0.36835176,-2.699719
242,2.4199999999999924,-1.2555611,-3.3506222,-0.64442784,1.6363553,0.23136522,-1.3764321
243,2.429999999999992,-1.8723043,-3.4116015,-0.9846916,0.89980453,0.24465153,-0.095294975
244,2.439999999999992,-2.0351799,-3.3362315,-0.8770634,0.20051652,0.075289145,1.3457361
245,2.4499999999999917,-1.841388,-3.2759228,-0.69217455,0.20051652,0.075289145,1.3457361
246,2.4599999999999915,-1.7018676,-3.243665,-0.6249145,-0.5006041,-0.17547104,3.8282926
247,2.4699999999999913,-1.0176203,-2.956026,-0.54119015,-0.72036284,-0.43753225,5.7118955
248,2.479999999999991,-0.4486847,-2.6996086,-0.5537518,-0.8249735,-0.70417494,6.5356474
249,2.489999999999991,-0.10482319,-2.4892917,-0.65668464,-1.0002918,-0.837649,6.958366
250,2.4999999999999907,0.31776243,-2.2629368,-0.790229,-1.5198327,-0.9014844,7.263646
251,2.5099999999999905,0.31776243,-2.2629368,-0.790229,-1.9860756,-0.872621,7.369478
252,2.5199999999999902,0.8455371,-2.0118856,-0.7299816,-3.0610456,-0.72295904,7.4844737
253,2.52999999999999,0.9823744,-1.896696,-0.4927117,-3.679394,-0.6412558,7.5475454
254,2.53999999999999,1.419717,-1.700465,0.1247024,-4.169155,-0.7173085,7.804109
255,2.5499999999999896,1.5983859,-1.6141796,0.24190436,-4.211305,-0.95737857,8.213388
256,2.5599999999999894,1.5983859,-1.6141796,0.24190436,-3.9434407,-1.2774719,8.483086
257,2.569999999999989,2.661314,-1.1842765,0.64442784,-1.5633569,-2.9581149,9.017592
258,2.579999999999989,3.7099726,-0.67772245,0.81242543,-1.5633569,-2.9581149,9.017592
259,2.5899999999999888,5.4019003,0.3533133,0.6807714,-0.4859433,-1.5219707,8.2808895
260,2.5999999999999885,5.4019003,0.3533133,0.6807714,-0.4859433,-1.5219707,8.2808895
261,2.6099999999999883,5.4019003,0.3533133,0.6807714,-1.218218,0.44776422,7.1315465
262,2.619999999999988,5.69893,1.0628059,0.2335502,-1.218218,0.44776422,7.1315465
263,2.629999999999988,5.331043,1.5767384,0.115799434,-4.1361685,2.2067506,4.2236753
264,2.6399999999999877,4.276103,1.7139415,1.3514203,-3.4406984,1.2916746,3.1968105
265,2.6499999999999875,3.8212595,1.662536,1.4719151,-2.7327056,0.7142542,2.699719
266,2.6599999999999873,3.2468967,1.671378,1.5317967,-1.2043208,-0.13515393,2.006845
267,2.669999999999987,2.9471843,1.75059,1.4313639,-0.21975878,-0.49938235,1.6965255
268,2.679999999999987,2.6341171,1.7551633,1.0446341,0.6337727,-0.5493206,1.3779593
269,2.6899999999999866,2.4366665,1.7181491,0.6776615,0.79443026,-0.2350304,1.1513283
270,2.6999999999999864,2.3911152,1.7612612,0.37307054,0.5190827,0.41340306,0.88270026
271,2.709999999999986,2.0678644,1.9076113,0.14628904,-0.123242065,1.4592043,0.2321288
272,2.719999999999986,2.0678644,1.9076113,0.14628904,-0.58078015,2.0960314,-0.48548517
273,2.7299999999999858,1.6330221,1.7821163,0.27849188,-0.79351395,2.3655756,-1.3161092
274,2.7399999999999856,1.3045883,1.6818055,0.4786255,-0.47036624,2.0651827,-1.9306396
275,2.7499999999999853,0.84450054,1.425388,0.72668874,0.95081174,0.91232723,-2.545781
276,2.759999999999985,0.84450054,1.425388,0.72668874,1.5340353,0.59223384,-2.7695103
277,2.769999999999985,0.7460191,1.2232422,0.6521722,2.0572414,0.47067168,-3.049592
278,2.7799999999999847,0.78772885,1.1024424,0.5950957,2.3733642,0.6783658,-3.350596
279,2.7899999999999845,0.78772885,1.1024424,0.5950957,2.3733642,0.6783658,-3.350596
280,2.7999999999999843,0.78772885,1.1024424,0.5950957,2.3733642,0.6783658,-3.350596
281,2.809999999999984,0.78772885,1.1024424,0.5950957,2.3733642,0.6783658,-3.350596
282,2.819999999999984,1.6550965,0.5684478,0.49923643,2.637258,1.21608,-4.769025
283,2.8299999999999836,1.9807253,0.46972254,0.5558861,2.7835603,1.1481212,-5.16792
284,2.8399999999999834,1.9807253,0.46972254,0.5558861,2.7835603,1.1481212,-5.16792
285,2.849999999999983,1.9807253,0.46972254,0.5558861,2.7835603,1.1481212,-5.16792
286,2.859999999999983,2.8882782,0.16988796,0.7358356,3.458719,0.6010914,-6.3762116
287,2.869999999999983,2.8882782,0.16988796,0.7358356,3.458719,0.6010914,-6.3762116
288,2.8799999999999826,2.8882782,0.16988796,0.7358356,3.458719,0.6010914,-6.3762116
289,2.8899999999999824,2.8882782,0.16988796,0.7358356,3.458719,0.6010914,-6.3762116
290,2.899999999999982,3.9382174,-0.15555786,0.88090503,4.2902594,0.20647246,-6.8537555
291,2.909999999999982,5.1243844,-1.4581949,-0.43953782,2.7294986,-0.6762278,-7.756767
292,2.9199999999999817,4.77412,-1.7926656,-0.4106947,1.3579534,-0.9228647,-7.72882
293,2.9299999999999815,4.77412,-1.7926656,-0.4106947,1.3579534,-0.9228647,-7.72882
294,2.9399999999999813,4.77412,-1.7926656,-0.4106947,1.3579534,-0.9228647,-7.72882
295,2.949999999999981,4.77412,-1.7926656,-0.4106947,1.3579534,-0.9228647,-7.72882
296,2.959999999999981,1.8093739,-2.584663,1.1277487,1.1485794,0.8732319,-6.541145
297,2.9699999999999807,0.17397358,-3.0567636,0.23367217,3.8990002,-1.0137309,-5.8027616
298,2.9799999999999804,0.17397358,-3.0567636,0.23367217,3.8990002,-1.0137309,-5.8027616
299,2.9899999999999802,-1.200558,-3.085485,-0.5935712,3.6370916,-2.2350032,-3.6511416
300,2.99999999999998,-1.6081426,-2.994443,-0.5904613,2.6931522,-1.9268217,-1.8428277
301,3.00999999999998,-1.9284052,-2.9545627,-0.61467,1.946064,-1.3136657,-0.1704314
302,3.0199999999999796,-2.0529246,-2.96871,-0.67906404,0.968985,-0.68508536,2.2504275
303,3.0299999999999794,-1.7727864,-2.8615694,-0.63076854,0.22602014,-0.29856038,4.1551056
304,3.039999999999979,-1.1782395,-2.7765033,-0.4724056,-0.46639562,0.06490443,6.012441
305,3.049999999999979,-0.67662483,-2.6638138,-0.34642264,-0.61712664,0.1600467,6.534731
306,3.0599999999999787,0.33532444,-2.3977008,-0.31422567,-0.76067996,0.41783184,7.276474
307,3.0699999999999785,0.872307,-2.0882318,-0.4364279,-0.7703011,0.39904773,7.047705
308,3.0799999999999783,0.872307,-2.0882318,-0.4364279,-0.7703011,0.39904773,7.047705
309,3.089999999999978,0.872307,-2.0882318,-0.4364279,-0.7703011,0.39904773,7.047705
310,3.099999999999978,0.41203624,-1.7356501,-0.38782752,-1.1276573,-0.98563105,6.52511
311,3.1099999999999777,0.5052124,-1.7088193,-0.26153967,-1.1276573,-0.98563105,6.52511
312,3.1199999999999775,0.9031625,-1.6415592,-0.27056456,-1.2962561,-1.0369438,7.96049
313,3.1299999999999772,1.5961298,-1.3687993,-0.27330863,-1.5448782,-0.9083566,8.4136
314,3.139999999999977,2.0700598,-1.1651899,-0.3100181,-1.7744108,-0.7510588,8.494692
315,3.149999999999977,2.0700598,-1.1651899,-0.3100181,-1.7744108,-0.7510588,8.494692
316,3.1599999999999766,2.9998703,-0.6369884,-0.30721304,-2.992018,-0.28160888,7.668955
317,3.1699999999999764,3.1146939,-0.21922012,0.55234927,-3.0848694,-0.74036866,7.402465
318,3.179999999999976,3.5649638,0.15342359,0.9825573,-2.5132523,-1.1304061,7.774635
319,3.189999999999976,3.5649638,0.15342359,0.9825573,-2.5132523,-1.1304061,7.774635
320,3.1999999999999758,5.396656,1.5828972,0.9711542,-1.5722144,0.33185256,7.891921
321,3.2099999999999755,6.1088324,2.087561,0.7605932,-1.8942931,1.6126842,7.0478578
322,3.2199999999999753,6.134199,2.3753824,0.7860215,-2.4120014,2.5827382,5.0906453
323,3.229999999999975,5.1628013,2.4111774,1.2027531,-2.0635028,2.2133174,3.18948
324,3.239999999999975,4.612098,2.2901945,1.3161743,-1.4153748,1.6840028,2.3907738
325,3.2499999999999747,3.928095,2.1287827,1.2323279,-0.19226983,0.9370673,1.4057536
326,3.2599999999999745,3.3871489,2.0620716,0.91590714,0.78022766,0.6123924,0.59849524
327,3.2699999999999743,2.476425,1.9318199,0.21928109,1.237613,0.8208502,-0.58001655
328,3.279999999999974,2.476425,1.9318199,0.21928109,1.237613,0.8208502,-0.58001655
329,3.289999999999974,1.6008861,1.8193134,-0.047319833,1.0824533,1.08902,-0.9944886
330,3.2999999999999736,1.6008861,1.8193134,-0.047319833,0.6406449,1.7573066,-1.9333885
331,3.3099999999999734,1.2191565,1.7441872,-0.091651686,0.6406449,1.7573066,-1.9333885
332,3.319999999999973,0.7789479,1.6124722,-0.06085721,0.5917757,1.8223637,-2.254551
333,3.329999999999973,0.52496964,1.504356,0.008598062,0.7440339,1.7069103,-2.574797
334,3.3399999999999728,0.21659799,1.284831,0.07207738,1.3762794,1.2012665,-2.9969049
335,3.3499999999999726,0.113116354,1.1665314,0.16116793,1.8635972,0.7108944,-3.145956
336,3.3599999999999723,0.10445731,1.1125039,0.18318142,1.8635972,0.7108944,-3.145956
337,3.369999999999972,0.33831242,1.0294503,0.14415476,2.4906504,0.06765333,-3.3351715
338,3.379999999999972,0.33831242,1.0294503,0.14415476,2.5025623,-0.013133603,-3.579365
339,3.3899999999999717,0.64820856,1.0132298,0.11628727,2.5025623,-0.013133603,-3.579365
340,3.3999999999999715,1.2830018,0.86633104,0.18684018,2.3701572,0.062155537,-4.067446
341,3.4099999999999713,1.4497187,0.80327857,0.27404037,2.069917,0.2406809,-4.9043317
342,3.419999999999971,1.9339542,0.75205606,0.37892455,2.0001256,0.30085114,-5.2059464
343,3.429999999999971,2.4630706,0.7080291,0.5305188,2.0126483,0.42241332,-5.607743
344,3.4399999999999706,2.77815,0.6457084,0.6961991,2.2386684,0.49968776,-6.2415156
345,3.4499999999999704,2.77815,0.6457084,0.6961991,2.2386684,0.49968776,-6.2415156
346,3.45999999999997,2.77815,0.6457084,0.6961991,2.4691174,0.409127,-6.5639
347,3.46999999999997,4.177073,-0.0010366458,0.88968605,3.557832,-0.67164636,-6.552599
348,3.47999999999997,4.177073,-0.0010366458,0.88968605,3.557832,-0.67164636,-6.552599
349,3.4899999999999696,4.177073,-0.0010366458,0.88968605,3.557832,-0.67164636,-6.552599
350,3.4999999999999694,4.177073,-0.0010366458,0.88968605,3.557832,-0.67164636,-6.552599
351,3.509999999999969,4.5913653,-0.16354613,0.6415009,3.8084393,-0.8407033,-6.465856
352,3.519999999999969,3.8044903,-2.0351188,0.29550505,-2.7327056,0.008246681,-6.149733
353,3.5299999999999687,2.7608318,-2.3784313,1.1528112,-2.7327056,0.008246681,-6.149733
354,3.5399999999999685,2.7608318,-2.3784313,1.1528112,-2.4384212,0.733191,-5.8841596
355,3.5499999999999683,2.7608318,-2.3784313,1.1528112,-2.4384212,0.733191,-5.8841596
356,3.559999999999968,2.7608318,-2.3784313,1.1528112,-2.4384212,0.733191,-5.8841596
357,3.569999999999968,2.7608318,-2.3784313,1.1528112,-2.4384212,0.733191,-5.8841596
358,3.5799999999999677,0.8773683,-2.7556486,1.431425,-1.7741054,0.869414,-5.72396
359,3.5899999999999674,-0.7857775,-2.8087614,-0.3637407,4.0329323,-0.3475823,-1.128879
360,3.5999999999999672,-0.7857775,-2.8087614,-0.3637407,4.0329323,-0.3475823,-1.128879
361,3.609999999999967,-0.7857775,-2.8087614,-0.3637407,4.0329323,-0.3475823,-1.128879
362,3.619999999999967,-0.7857775,-2.8087614,-0.3637407,4.0329323,-0.3475823,-1.128879
363,3.6299999999999666,-1.2576344,-2.842178,-0.8851126,3.094185,-0.011453724,0.5716171
364,3.6399999999999664,-0.80663246,-2.745709,-0.7121757,-0.7443393,0.3652974,5.595984
365,3.649999999999966,-0.23781876,-2.5752113,-0.46203914,-1.4034629,0.45081854,6.7670126
366,3.659999999999966,-0.1709246,-2.544051,-0.44270876,-1.4530957,0.43967026,6.873303
367,3.6699999999999657,0.33014122,-2.2330573,-0.33526346,-1.4530957,0.43967026,6.873303
368,3.6799999999999655,0.46417344,-2.1129282,-0.35538658,-1.5706873,-0.14126259,7.413155
369,3.6899999999999653,0.59497374,-1.9161484,-0.49246776,-1.6920967,-0.65408397,7.7031636
370,3.699999999999965,0.59497374,-1.9161484,-0.49246776,-1.6920967,-0.65408397,7.7031636
371,3.709999999999965,0.6811983,-1.7835797,-0.56210595,-2.1120665,-1.010982,8.327163
372,3.7199999999999647,0.6811983,-1.7835797,-0.56210595,-2.3709207,-1.1988231,8.657793
373,3.7299999999999645,1.2725133,-1.6898546,-0.5260063,-2.7522533,-1.3652838,9.14053
374,3.7399999999999642,1.7949218,-1.5097222,-0.37727812,-3.086702,-1.4216361,9.623113
375,3.749999999999964,4.1756096,-0.76632524,0.26074693,-3.2406402,-0.95386606,9.561568
376,3.759999999999964,5.3952537,0.2151345,0.71559054,-2.843425,-0.30787608,8.251109
377,3.7699999999999636,5.7268586,0.52594537,0.84370774,-2.6595545,0.06093381,7.546171
378,3.7799999999999634,5.7601533,1.1697633,1.0851244,-2.2740986,0.46685377,6.478837
379,3.789999999999963,5.732225,1.624424,1.121163,-1.9608774,0.8202393,5.6720366
380,3.799999999999963,5.8225956,1.770835,1.0145104,-1.768913,1.2594514,4.7416887
381,3.8099999999999627,5.249026,1.9694442,0.82895076,-1.6533068,1.549307,3.0419562
382,3.8199999999999625,4.76729,1.9842011,0.7410798,-1.5824465,1.5106697,2.2901337
383,3.8299999999999623,3.9501083,1.9134653,0.7596175,-1.3901765,1.1110111,1.1491902
384,3.839999999999962,3.5136194,1.8429124,0.8735266,-1.0774136,0.889878,0.5525276
385,3.849999999999962,2.5299647,1.8355949,0.784375,-0.14065172,0.7002043,-0.39614612
386,3.8599999999999617,2.5299647,1.8355949,0.784375,-0.14065172,0.7002043,-0.39614612
387,3.8699999999999615,2.0153005,1.8320581,0.5302139,0.23793201,0.968985,-0.9735665
388,3.8799999999999613,1.6576577,1.7834578,0.3488618,0.28496864,1.2469287,-1.4049901
389,3.889999999999961,1.2789161,1.7222956,0.23763582,0.23900102,1.4851661,-1.8173242
390,3.899999999999961,0.6366835,1.5652133,0.21415883,0.18921551,1.6455183,-2.0960314
391,3.9099999999999606,0.6366835,1.5652133,0.21415883,0.1881465,1.835192,-2.577546
392,3.9199999999999604,0.46325874,1.4447794,0.22604977,0.42928556,1.881465,-2.8344147
393,3.92999999999996,0.34800813,1.2962341,0.3353854,1.2797627,1.5045611,-3.0060678
394,3.93999999999996,0.4818574,1.2329378,0.39063254,1.6461291,1.2527319,-3.1274774
395,3.9499999999999598,0.8106571,1.1014057,0.39362052,2.4191792,0.6806566,-3.6268597
396,3.9599999999999596,1.0645133,0.9365181,0.3055666,2.862209,0.39080104,-4.244292
397,3.9699999999999593,1.1645192,0.8130962,0.22574489,3.02531,0.24465153,-4.7025933
398,3.979999999999959,1.4074602,0.6949796,0.17311986,3.02531,0.24465153,-4.7025933
399,3.989999999999959,1.5830191,0.6190605,0.1606801,2.9283352,0.2098322,-5.4530416
400,3.9999999999999587,1.8632184,0.48332086,0.15202107,2.6456573,0.45280385,-5.8191023
401,4.009999999999959,2.198665,0.38965687,0.24958774,2.3202188,0.80924374,-6.1333923
402,4.019999999999959,2.198665,0.38965687,0.24958774,2.3202188,0.80924374,-6.1333923
403,4.0299999999999585,2.8577275,0.16476572,0.5742408,2.2696698,0.9069822,-6.616129
404,4.039999999999958,2.8577275,0.16476572,0.5742408,2.2696698,0.9069822,-6.616129
405,4.049999999999958,2.8577275,0.16476572,0.5742408,2.2696698,0.9069822,-6.616129
406,4.059999999999958,4.1235943,-0.32294568,0.7683985,3.1694744,0.5345071,-6.4670777
407,4.069999999999958,4.8518686,-0.5545445,0.107506275,3.6658022,-0.18600847,-6.3826256
408,4.079999999999957,4.8958344,-0.766874,-0.36752144,2.434298,-1.1911873,-6.4805164
409,4.089999999999957,4.818635,-1.021523,-0.4441113,1.370629,-1.2614367,-6.5260262
410,4.099999999999957,3.940108,-1.738455,0.010061563,-2.0732768,0.11102476,-6.352693
411,4.109999999999957,2.7261956,-2.140003,0.96383667,-2.1027508,0.8765916,-6.0833015
412,4.119999999999957,1.9912138,-2.2823281,1.2895874,-1.1154399,0.9966267,-5.8291817
413,4.129999999999956,1.2802577,-2.4892917,1.3469079,0.46975538,0.61162883,-5.5411587
414,4.139999999999956,0.25653934,-2.701316,1.0376215,2.6193902,-0.3979787,-5.021923
415,4.149999999999956,-0.31977475,-2.7996147,0.6724173,3.9180896,-1.3600914,-4.223064
416,4.159999999999956,-1.153238,-2.8966935,-0.16805859,4.562705,-2.1137464,-2.4640777
417,4.1699999999999555,-1.3126985,-2.874741,-0.4696006,4.2830815,-1.9961549,-1.1206323
418,4.179999999999955,-1.3126985,-2.874741,-0.4696006,4.2830815,-1.9961549,-1.1206323
419,4.189999999999955,-1.3126985,-2.874741,-0.4696006,4.2830815,-1.9961549,-1.1206323
420,4.199999999999955,-1.3126985,-2.874741,-0.4696006,4.2830815,-1.9961549,-1.1206323
421,4.209999999999955,-1.3126985,-2.874741,-0.4696006,4.2830815,-1.9961549,-1.1206323
422,4.2199999999999545,-1.501612,-2.9747467,-1.0931736,0.5833763,-0.042913284,3.8736491
423,4.229999999999954,-0.38776654,-2.730891,-0.5352141,-1.2649492,0.15409076,6.9281282
424,4.239999999999954,0.12744646,-2.4772177,-0.3918521,-1.2649492,0.15409076,6.9281282
425,4.249999999999954,0.12744646,-2.4772177,-0.3918521,-1.2649492,0.15409076,6.9281282
426,4.259999999999954,0.12744646,-2.4772177,-0.3918521,-1.2649492,0.15409076,6.9281282
427,4.269999999999953,0.12744646,-2.4772177,-0.3918521,-1.2649492,0.15409076,6.9281282
428,4.279999999999953,0.91419965,-1.9398082,-0.42319545,-1.9732474,-0.7994699,8.823949
429,4.289999999999953,1.1848252,-1.8727922,-0.4237442,-2.293188,-0.7510588,8.999114
430,4.299999999999953,1.1848252,-1.8727922,-0.4237442,-2.293188,-0.7510588,8.999114
431,4.3099999999999525,1.1848252,-1.8727922,-0.4237442,-2.293188,-0.7510588,8.999114
432,4.319999999999952,2.295378,-1.498868,-0.004024625,-3.2304082,-0.8014552,9.510866
433,4.329999999999952,4.4247704,-0.526982,0.6993701,-2.3872614,-1.29198,9.247736
434,4.339999999999952,4.926446,-0.099822894,0.8745633,-1.8735237,-1.3063353,8.997892
435,4.349999999999952,5.569776,0.6222924,0.7965709,-1.104139,-0.54718256,8.190939
436,4.3599999999999515,5.511846,0.9935336,0.7168711,-0.8544478,0.08155051,7.211264
437,4.369999999999951,5.251587,1.3220284,0.6122918,-0.7338019,0.44501534,6.6220846
438,4.379999999999951,5.31903,1.4695979,0.31190842,-0.9268353,0.957684,5.861405
439,4.389999999999951,5.376045,1.6134478,0.22592781,-1.7186694,1.9634736,3.6184602
440,4.399999999999951,4.7784495,1.7890679,0.21586627,-1.7186694,1.9634736,3.6184602
441,4.40999999999995,3.9405956,1.7156489,0.3594112,-1.924531,2.0373883,2.4877486
442,4.41999999999995,2.9399276,1.536858,0.7624225,-1.0494665,1.1036807,1.3519975
443,4.42999999999995,2.9399276,1.536858,0.7624225,-1.0494665,1.1036807,1.3519975
444,4.43999999999995,2.24757,1.3988621,0.714249,0.38331795,0.46211955,0.59406644
445,4.4499999999999496,2.24757,1.3988621,0.714249,0.38331795,0.46211955,0.59406644
446,4.459999999999949,1.7719936,1.4292907,0.33440974,0.8523097,0.6585127,0.15470162
447,4.469999999999949,1.4678296,1.396606,0.1562896,1.0761919,1.3613132,-0.91232723
448,4.479999999999949,1.2935511,1.3919104,0.08494398,1.0792462,1.4598153,-1.1415545
449,4.489999999999949,1.021889,1.3226992,-0.00219525,1.1305588,1.7006488,-1.8603901
450,4.4999999999999485,0.77108157,1.2040337,-0.053966567,1.3067935,1.6018413,-2.531731
451,4.509999999999948,0.5859488,1.126834,-0.06262561,1.3067935,1.6018413,-2.531731
452,4.519999999999948,0.5859488,1.126834,-0.06262561,1.3067935,1.6018413,-2.531731
453,4.529999999999948,0.5859488,1.126834,-0.06262561,1.3067935,1.6018413,-2.531731
454,4.539999999999948,0.22684251,0.84096366,0.094212815,2.218357,0.095294975,-3.3111951
455,4.549999999999947,0.4920409,0.8325486,0.14665489,2.48332,-0.3559817,-3.3933563
456,4.559999999999947,0.670222,0.81266934,0.12823918,2.5889995,-0.5510005,-3.6328156
457,4.569999999999947,0.854623,0.76364213,0.14189851,2.5723536,-0.6310238,-4.0155225
458,4.579999999999947,1.0489026,0.7138221,0.19269417,2.4814873,-0.55756724,-4.297895
459,4.589999999999947,1.4231318,0.6871133,0.27275982,2.3252585,-0.28588495,-4.742758
460,4.599999999999946,2.3188548,0.56247187,0.5605815,2.1832323,0.33169982,-5.7555723
461,4.609999999999946,2.6277142,0.47563753,0.8317558,2.1832323,0.33169982,-5.7555723
462,4.619999999999946,2.6277142,0.47563753,0.8317558,2.5520422,0.098807454,-6.3003116
463,4.629999999999946,2.8772411,0.39154723,1.0351213,2.9034426,-0.26175576,-6.4214153
464,4.6399999999999455,4.908274,-0.018964522,1.1891547,4.517959,-0.74281216,-6.0067906
465,4.649999999999945,5.8573537,-0.35380113,0.59021735,4.563927,-0.38515055,-6.1730986
466,4.659999999999945,5.8573537,-0.35380113,0.59021735,4.563927,-0.38515055,-6.1730986
467,4.669999999999945,6.0556583,-0.63351256,0.078114316,3.833943,-0.30970868,-6.483876
468,4.679999999999945,6.0556583,-0.63351256,0.078114316,3.833943,-0.30970868,-6.483876
469,4.689999999999944,5.2450013,-1.6941233,-0.07335794,-0.6704246,0.23777929,-7.3842916
470,4.699999999999944,3.807295,-2.4205072,0.933774,-1.6804903,0.99021256,-7.6408553
471,4.709999999999944,2.7846138,-2.5550272,1.3671529,-0.8524625,0.9983065,-7.4215546
472,4.719999999999944,1.8199842,-2.6311293,1.3681896,0.6258314,0.6568329,-6.944774
473,4.729999999999944,1.0147543,-2.754429,1.0931126,2.4295638,-0.19349156,-6.1335454
474,4.739999999999943,0.33099493,-2.7711372,0.6971138,3.2501085,-0.78542,-5.539937
475,4.749999999999943,-0.38563228,-2.7336962,-0.057564333,3.8930442,-1.517542,-4.1357102
476,4.759999999999943,-0.6221095,-2.6666799,-0.43746454,3.4880404,-1.5467108,-3.1422908
477,4.769999999999943,-0.74455565,-2.6445446,-0.5910101,2.7020097,-1.2096659,-2.2029328
478,4.7799999999999425,-0.9636538,-2.6881447,-0.6866864,1.5829046,-0.37751472,-1.0842859
479,4.789999999999942,-1.1327491,-2.7194881,-0.7245545,0.9428705,0.1516473,-0.4286747
480,4.799999999999942,-1.4637439,-2.95566,-0.62509745,-0.3022256,0.590554,1.1801916
481,4.809999999999942,-1.4637439,-2.95566,-0.62509745,-0.8014552,0.41431937,2.1491766
482,4.819999999999942,-1.3982524,-3.0015166,-0.46789315,-1.061073,0.19318613,3.0476067
483,4.8299999999999415,-1.3031248,-2.9688318,-0.34508112,-1.1055133,-0.077579886,4.0747766
484,4.839999999999941,-1.0101808,-2.7829063,-0.362948,-1.0128145,-0.3324634,4.672203
485,4.849999999999941,-0.7309573,-2.6342392,-0.43941587,-0.6017023,-1.5906931,7.011664
486,4.859999999999941,-0.29568797,-2.5389898,-0.4494165,-0.66599584,-1.8095356,7.8184643
487,4.869999999999941,-0.29568797,-2.5389898,-0.4494165,-0.66599584,-1.8095356,7.8184643
488,4.87999999999994,0.29312685,-2.4233122,-0.47124702,-0.93645644,-1.7234036,8.501411
489,4.88999999999994,0.29312685,-2.4233122,-0.47124702,-0.93645644,-1.7234036,8.501411
490,4.89999999999994,1.4983801,-2.0192642,-0.64589137,-1.9312505,-0.89827734,8.697347
491,4.90999999999994,1.4983801,-2.0192642,-0.64589137,-1.9312505,-0.89827734,8.697347
492,4.9199999999999395,2.3234282,-1.4074602,-0.05353971,-4.6641088,-0.37140608,10.075001
493,4.929999999999939,3.5025826,-1.089271,0.5405803,-4.4321327,-0.92485,11.13699
494,4.939999999999939,5.360069,-0.38776654,1.1192727,-3.7899606,-0.75701475,11.287109
495,4.949999999999939,5.360069,-0.38776654,1.1192727,-3.7899606,-0.75701475,11.287109
496,4.959999999999939,5.360069,-0.38776654,1.1192727,-3.7899606,-0.75701475,11.287109
497,4.9699999999999385,5.360069,-0.38776654,1.1192727,-3.7899606,-0.75701475,11.287109
498,4.979999999999938,6.8387527,2.066035,1.001095,-3.089909,2.9315424,5.333159
499,4.989999999999938,6.015412,2.0798163,1.0950029,-3.3027956,3.285844,4.0165915
500,4.999999999999938,6.015412,2.0798163,1.0950029,-3.3027956,3.285844,4.0165915
501,5.009999999999938,6.015412,2.0798163,1.0950029,-3.3027956,3.285844,4.0165915
502,5.019999999999937,3.231713,1.7025993,1.4231318,-1.1088731,2.1569653,1.5393804
503,5.029999999999937,2.2879384,1.741565,1.1129917,0.9932669,1.154688,0.7296785
504,5.039999999999937,1.5164909,1.6970502,0.72522527,2.1051943,0.7142542,0.3323107
505,5.049999999999937,1.1457986,1.7058923,0.39929157,2.1051943,0.7142542,0.3323107
506,5.0599999999999365,0.9599951,1.764615,0.22659859,2.7426322,0.8378017,-0.5204572
507,5.069999999999936,0.9599951,1.764615,0.22659859,2.7606528,0.8713993,-0.9230174
508,5.079999999999936,0.7428482,1.718271,0.027684543,2.7606528,0.8713993,-0.9230174
509,5.089999999999936,0.45502654,1.5978981,-0.17110755,2.4054346,1.024421,-1.5448782
510,5.099999999999936,0.37520483,1.486977,-0.112567544,2.204002,1.0859656,-1.9489655
511,5.1099999999999355,0.37520483,1.486977,-0.112567544,2.3596196,0.84604836,-2.2576053
512,5.119999999999935,0.3971573,1.2486094,0.27605268,2.7789788,0.32834008,-2.5060747
513,5.129999999999935,0.3971573,1.2486094,0.27605268,2.7789788,0.32834008,-2.5060747
514,5.139999999999935,0.6451596,1.1319562,0.35648423,3.9758165,-1.0877982,-3.2151365
515,5.149999999999935,1.0189009,1.0337799,0.1791568,4.361425,-1.5531249,-3.756974
516,5.159999999999934,1.343188,1.01884,0.071040735,4.2514696,-1.7058412,-4.2244387
517,5.169999999999934,1.7501022,0.93188363,-0.01396423,3.7212384,-1.5308284,-4.9063168
518,5.179999999999934,2.2767792,0.7780942,0.10427438,2.4339926,-0.82650065,-5.8629317
519,5.189999999999934,2.2767792,0.7780942,0.10427438,2.4339926,-0.82650065,-5.8629317
520,5.199999999999934,2.4097748,0.7344941,0.2338551,2.2968533,-0.75915277,-5.961892
521,5.209999999999933,2.4097748,0.7344941,0.30202982,2.1781929,-0.70264775,-6.0535216
522,5.219999999999933,5.4109864,-0.05189327,1.4884405,2.4584272,-1.736079,-6.1257567
523,5.229999999999933,5.4109864,-0.05189327,1.4884405,3.8200457,-2.8634307,-5.8116193
524,5.239999999999933,6.6140447,-0.42618343,0.26586917,3.0491338,-2.8938215,-6.531982
525,5.2499999999999325,6.1162105,-1.3259311,-0.1627534,0.17379116,-1.9970711,-7.635205
526,5.259999999999932,6.1162105,-1.3259311,-0.1627534,0.17379116,-1.9970711,-7.635205
527,5.269999999999932,6.1162105,-1.3259311,-0.1627534,-1.8081611,-0.6600399,-7.9371247
528,5.279999999999932,6.1162105,-1.3259311,-0.1627534,-1.8081611,-0.6600399,-7.9371247
529,5.289999999999932,2.095854,-2.9760883,1.7718716,-0.99280876,1.3987287,-6.795265
530,5.299999999999931,1.2520853,-2.9977968,1.6438154,1.1073459,0.5158757,-6.137363
531,5.309999999999931,0.36459443,-3.1216457,1.0604278,3.3197472,-0.8772025,-5.195256
532,5.319999999999931,-0.23763582,-3.117621,0.43837923,4.3154573,-1.6849191,-4.3012547
533,5.329999999999931,-0.76559347,-3.0010288,-0.17116854,4.3982296,-1.9329304,-3.274543
534,5.339999999999931,-1.1147602,-2.8612645,-0.5808266,3.3166928,-1.0716103,-1.502423
535,5.34999999999993,-1.1511037,-2.8563862,-0.7657154,2.4210117,-0.12950343,-0.4156938
536,5.35999999999993,-1.4231318,-2.8990107,-1.1214678,1.1838568,0.6409504,0.8700248
537,5.36999999999993,-1.5489318,-2.8811438,-1.2257423,0.007941248,0.7852673,1.9275852
538,5.37999999999993,-1.3272725,-2.8984008,-0.9587145,-2.2860105,0.5523749,4.2336016
539,5.3899999999999295,-0.9773741,-2.7849796,-0.7694961,-3.0838006,0.3474296,5.1653237
540,5.399999999999929,-0.7558368,-2.6371052,-0.68375945,-3.0838006,0.3474296,5.1653237
541,5.409999999999929,-0.7558368,-2.6371052,-0.68375945,-3.5266778,0.1684461,5.732054
542,5.419999999999929,-0.36111864,-2.4281297,-0.70040673,-4.0234637,0.055283304,6.3913302
543,5.429999999999929,0.21263437,-2.2675104,-0.65766037,-5.1236324,0.100029185,7.4130025
544,5.4399999999999284,0.553142,-2.1760416,-0.5741799,-5.531385,-0.034208454,7.5406733
545,5.449999999999928,1.1609215,-1.9781643,-0.40856043,-5.531385,-0.034208454,7.5406733
546,5.459999999999928,1.1609215,-1.9781643,-0.40856043,-5.795737,-0.49632803,7.292509
547,5.469999999999928,1.2385479,-1.7493094,-0.16452178,-5.691584,-1.287093,7.044498
548,5.479999999999928,1.2385479,-1.7493094,-0.16452178,-4.5959973,-3.2893567,7.7068286
549,5.489999999999927,1.6114964,-1.4842329,0.46606377,-4.5959973,-3.2893567,7.7068286
550,5.499999999999927,4.111276,-0.44130626,1.4012403,-2.5592198,-4.525595,9.919841
551,5.509999999999927,6.7641144,0.8708435,1.5238085,-1.9668334,-2.7217102,9.625862
552,5.519999999999927,7.8325305,1.8866955,1.0668916,-2.6354253,-0.48197266,7.7051487
553,5.5299999999999265,6.9741263,2.4999628,1.0960395,-2.6354253,-0.48197266,7.7051487
554,5.539999999999926,6.152737,2.505817,1.6003982,-4.9008193,2.1126773,3.3554828
555,5.549999999999926,4.7727175,2.206653,2.4328249,-4.217719,1.6530013,1.7518088
556,5.559999999999926,3.9877937,2.0804265,2.7232687,-2.7122416,1.010982,1.1265882
557,5.569999999999926,3.0546904,1.9215755,2.0931098,1.157437,0.008857546,0.34880406
558,5.5799999999999255,3.0546904,1.9215755,2.0931098,1.157437,0.008857546,0.34880406
559,5.589999999999925,3.0546904,1.9215755,2.0931098,1.157437,0.008857546,0.34880406
560,5.599999999999925,3.0546904,1.9215755,2.0931098,1.157437,0.008857546,0.34880406
561,5.609999999999925,3.0546904,1.9215755,2.0931098,1.157437,0.008857546,0.34880406
562,5.619999999999925,0.96670276,1.5786897,0.44630653,1.4307991,2.0482311,-1.7105755
563,5.629999999999924,0.96670276,1.5786897,0.44630653,1.4307991,2.0482311,-1.7105755
564,5.639999999999924,0.69101596,1.50771,0.42057332,1.5367843,2.1558962,-1.951409
565,5.649999999999924,0.69101596,1.50771,0.42057332,1.5367843,2.1558962,-1.951409
566,5.659999999999924,0.69101596,1.50771,0.42057332,1.5367843,2.1558962,-1.951409
567,5.6699999999999235,-0.47429594,0.95590943,0.19684075,2.0604484,2.0987802,-2.404213
568,5.679999999999923,-0.3755097,0.7329696,-0.053783625,3.7853792,1.0703887,-2.7548494
569,5.689999999999923,-0.18171792,0.69534546,-0.15421632,3.958254,0.7309003,-2.7475193
570,5.699999999999923,-0.18171792,0.69534546,-0.15421632,3.958254,0.7309003,-2.7475193
571,5.709999999999923,-0.18171792,0.69534546,-0.15421632,3.958254,0.7309003,-2.7475193
572,5.7199999999999225,0.47002742,0.71943223,-0.12701961,3.4596353,0.58184916,-3.1769574
573,5.729999999999922,1.2125708,0.8462079,0.27550387,3.3064609,0.15745051,-3.8539488
574,5.739999999999922,1.6953428,1.0178642,0.44685537,3.3064609,0.15745051,-3.8539488
575,5.749999999999922,1.6953428,1.0178642,0.44685537,3.408628,-0.008399397,-4.1535783
576,5.759999999999922,3.0129807,1.126773,0.56643546,3.3250923,-0.039858956,-4.469548
577,5.769999999999921,3.509412,1.0780507,0.67290515,3.0955596,0.13622294,-4.8253775
578,5.779999999999921,4.7640586,1.0340238,0.9462137,3.16474,-0.3297145,-4.9513683
579,5.789999999999921,5.503248,0.883954,0.7649227,3.3258557,-0.7330383,-5.1714325
580,5.799999999999921,5.9376636,0.46453932,0.15994836,2.7159069,-1.0821478,-5.7586265
581,5.809999999999921,5.7986307,-0.26208845,-0.18043736,0.99280876,-1.0891727,-6.4618855
582,5.81999999999992,5.4281826,-0.73687226,-0.094517715,-0.25381452,-0.8888089,-6.790989
583,5.82999999999992,4.264273,-1.5504563,0.53783625,-2.1517727,-0.22357668,-6.937902
584,5.83999999999992,3.404467,-1.9534677,1.124273,-2.4630086,0.16676621,-6.59765
585,5.84999999999992,2.4130676,-2.1789687,1.7009529,-1.4941764,0.57558775,-5.853158
586,5.8599999999999195,1.7783965,-2.326843,1.7947998,0.14110987,0.6968445,-5.1703634
587,5.869999999999919,1.7783965,-2.326843,1.7947998,1.9362901,0.410196,-4.4839034
588,5.879999999999919,1.7783965,-2.326843,1.7947998,1.9362901,0.410196,-4.4839034
589,5.889999999999919,1.7783965,-2.326843,1.7947998,1.9362901,0.410196,-4.4839034
590,5.899999999999919,-0.6541845,-2.637593,-0.41667065,4.1899247,-0.5019785,-1.3707817
591,5.909999999999918,-0.9119435,-2.6132622,-0.69004023,3.5961637,-0.3211624,-0.44058657
592,5.919999999999918,-1.1202483,-2.622592,-0.9151754,2.8446467,-0.13652839,0.47143525
593,5.929999999999918,-1.2425725,-2.669668,-1.0820143,1.7693712,-0.1414153,1.6891952
594,5.939999999999918,-1.1845204,-2.7519288,-0.99316764,0.547488,-0.36926803,2.9205468
595,5.949999999999918,-1.1845204,-2.7519288,-0.99316764,-0.37140608,-0.45142943,4.088216
596,5.959999999999917,-1.1845204,-2.7519288,-0.99316764,-0.37140608,-0.45142943,4.088216
597,5.969999999999917,-0.78309447,-2.7412574,-0.5760702,-1.7486018,-0.62018096,6.2297564
598,5.979999999999917,-0.33178765,-2.508073,-0.31806734,-1.7293595,-0.7527387,6.4505844
599,5.989999999999917,0.000365875,-2.3164158,-0.30782285,-1.7293595,-0.7527387,6.4505844
600,5.9999999999999165,0.24934383,-2.154638,-0.34532502,-1.5882497,-1.4763086,7.5776305
601,6.009999999999916,0.43295208,-2.078048,-0.37124115,-1.700038,-1.5108224,7.8755803
602,6.019999999999916,0.8159013,-1.9354179,-0.39063254,-2.0114264,-1.4694363,8.273406
603,6.029999999999916,0.8159013,-1.9354179,-0.39063254,-2.2702806,-1.4011722,8.458651
604,6.039999999999916,1.6235093,-1.6397299,-0.46606377,-3.0025554,-1.2331842,8.817992
605,6.0499999999999154,2.2004333,-1.4216074,-0.27684543,-3.5921931,-1.4081972,9.33005
606,6.059999999999915,2.921024,-1.1597629,0.19403571,-3.727958,-1.9170479,9.964892
607,6.069999999999915,4.567218,-0.49777296,0.8699898,-3.175125,-2.5335636,10.687851
608,6.079999999999915,5.6738677,0.062015813,1.1100647,-2.6751316,-2.2143865,10.655476
609,6.089999999999915,7.2399344,1.0986006,1.1354321,-2.3176227,0.072540246,8.962462
610,6.099999999999914,7.25274,2.0473144,1.0123762,-2.944065,2.019215,6.7300553
611,6.109999999999914,5.6809416,2.2992804,1.0241451,-3.3907602,3.0428724,5.1192036
612,6.119999999999914,5.0296836,2.1722,1.1073817,-3.5306485,3.1916182,3.2997413
613,6.129999999999914,3.8754702,1.9291979,1.2533048,-2.4782803,2.0468566,1.4381295
614,6.1399999999999135,3.2331765,1.8360217,1.3922154,-1.212262,1.0454959,0.77503526
615,6.149999999999913,3.2331765,1.8360217,1.3922154,-1.212262,1.0454959,0.77503526
616,6.159999999999913,2.2970243,1.7040629,0.9556655,0.9483683,0.24098633,-0.22342396
617,6.169999999999913,1.9785299,1.659365,0.7020531,1.270447,0.31215215,-0.50320023
618,6.179999999999913,1.3577621,1.6007032,0.32032356,1.410946,0.7139487,-0.97249746
619,6.1899999999999125,0.99005777,1.5667377,0.16061912,1.3466524,0.9975429,-1.2260065
620,6.199999999999912,0.99005777,1.5667377,0.16061912,1.2731959,1.2066116,-1.5221235
621,6.209999999999912,0.25074634,1.4786229,-0.04256346,1.287093,1.2195925,-1.8206838
622,6.219999999999912,0.25074634,1.4786229,-0.04256346,1.287093,1.2195925,-1.8206838
623,6.229999999999912,-0.22537899,1.3030028,0.050368793,1.6928604,0.9469938,-2.1300871
624,6.239999999999911,-0.30532268,1.2461092,0.086285524,1.9932534,0.7499898,-2.1213822
625,6.249999999999911,-0.28855342,1.1394567,0.08293167,2.3353379,0.49098295,-2.0642664
626,6.259999999999911,-0.20299964,1.0961006,0.08384635,2.5030203,0.34437528,-2.0405953
627,6.269999999999911,0.0070126047,1.0653061,0.10921369,2.7343855,0.08155051,-2.514016
628,6.2799999999999105,0.47374716,1.0573788,0.08183405,2.7343855,0.08155051,-2.514016
629,6.28999999999991,0.47374716,1.0573788,0.08183405,2.7343855,0.08155051,-2.514016
630,6.29999999999991,1.0520126,0.9945702,0.055247124,2.5445592,0.15668693,-3.643353
631,6.30999999999991,1.3468468,0.8597453,0.14317909,2.5445592,0.15668693,-3.643353
632,6.31999999999991,1.8695604,0.8317558,0.5844243,2.4072673,-0.16233744,-4.895627
633,6.3299999999999095,2.493865,0.816816,0.8043152,2.7437012,-0.33735034,-4.9895473
634,6.339999999999909,3.2532387,0.72876203,0.9114556,3.0987666,-0.399964,-5.086064
635,6.349999999999909,3.2532387,0.72876203,0.9114556,3.0987666,-0.399964,-5.086064
636,6.359999999999909,3.2532387,0.72876203,0.9114556,3.0987666,-0.399964,-5.086064
637,6.369999999999909,4.042492,0.61893857,0.86901414,3.523318,-0.4596761,-5.138293
638,6.379999999999908,5.8162537,0.3869738,0.21470766,3.7131443,-1.0151054,-5.2326717
639,6.389999999999908,6.475744,-0.5159447,-0.5321652,0.3474296,-0.8773552,-6.5463376
640,6.399999999999908,5.7633853,-1.3398343,-0.31178647,-1.4246905,-0.20830505,-7.0641985
641,6.409999999999908,4.8668694,-1.9114529,0.19549921,-2.7246118,0.57787853,-7.2384477
642,6.419999999999908,3.6392977,-2.3925176,1.0034122,-3.045316,1.1743884,-6.9957814
643,6.429999999999907,2.956636,-2.522952,1.4513652,-3.045316,1.1743884,-6.9957814
644,6.439999999999907,0.8301094,-2.8181522,1.170983,-3.045316,1.1743884,-6.9957814
645,6.449999999999907,1.7037579,-2.6513743,1.651377,2.4698808,-0.25610524,-4.998863
646,6.459999999999907,-0.38368094,-2.891571,0.08768804,2.4698808,-0.25610524,-4.998863
647,6.4699999999999065,-0.38368094,-2.891571,0.08768804,4.156174,-1.3461943,-3.2759175
648,6.479999999999906,-0.9488969,-2.8088834,-0.5320433,3.378085,-0.93233305,-1.698358
649,6.489999999999906,-0.9488969,-2.8088834,-0.5320433,3.378085,-0.93233305,-1.698358
650,6.499999999999906,-1.1868985,-2.8321776,-0.9449331,2.1804836,-0.33628133,-0.46654832
651,6.509999999999906,-1.3706287,-2.8458366,-1.0431097,0.011148291,-0.13591751,1.3307699
652,6.519999999999905,-1.4106921,-2.866143,-0.921944,-0.5580254,-0.23487769,1.9979875
653,6.529999999999905,-1.3828245,-2.7539413,-0.64869636,-1.406059,-0.463494,3.6034942
654,6.539999999999905,-1.255622,-2.6440568,-0.51765215,-1.5859588,-0.68294734,4.4962735
655,6.549999999999905,-1.255622,-2.6440568,-0.51765215,-1.6508633,-1.02717,5.550627
656,6.559999999999905,-0.47899136,-2.3623939,-0.50362694,-1.7434094,-1.2793045,6.201962
657,6.569999999999904,-0.15586275,-2.2590954,-0.5147861,-1.8683313,-1.3955216,6.568634
658,6.579999999999904,0.5506419,-2.0302403,-0.57436275,-2.3690882,-1.2942708,7.0128856
659,6.589999999999904,0.87877077,-1.8376073,-0.55100775,-2.9652927,-1.1024591,7.113526
660,6.599999999999904,1.0132298,-1.7401015,-0.5016756,-3.4535267,-1.0676397,7.19584
661,6.6099999999999035,1.1568358,-1.6603407,-0.38325405,-3.903429,-1.1690434,7.379405
662,6.619999999999903,1.8385218,-1.6658288,0.38819337,-4.174653,-1.3874277,7.734623
663,6.629999999999903,2.5977736,-1.3833734,0.98103285,-3.085175,-3.1430545,9.315847
664,6.639999999999903,2.5977736,-1.3833734,0.98103285,-3.085175,-3.1430545,9.315847
665,6.649999999999903,5.91004,0.37563166,1.0408534,-0.5522222,-2.41979,9.668928
666,6.659999999999902,6.57203,1.0109127,0.60399866,-0.6730208,-0.742354,8.883203
667,6.669999999999902,6.4464126,1.8356559,0.14525238,-2.7262917,1.73501,6.73876
668,6.679999999999902,5.540445,2.0758529,0.6278415,-3.9845214,2.534938,5.096754
669,6.689999999999902,4.7987556,1.9747493,1.0670744,-3.9309177,2.3726006,4.09463
670,6.699999999999902,4.1081667,1.969993,1.8013855,-2.6397014,1.189202,3.1338913
671,6.709999999999901,3.714912,2.055364,2.1360393,-2.6397014,1.189202,3.1338913
672,6.719999999999901,3.3259258,2.1217701,1.7020506,1.9123137,-0.7101309,1.8551978
673,6.729999999999901,2.9547455,2.1060987,0.746263,3.2716415,-0.81000733,1.223105
674,6.739999999999901,2.526733,2.0856705,0.070248,3.308599,-0.5138904,0.8135198
675,6.7499999999999005,2.1035984,2.0217643,-0.4853332,2.399784,0.32711834,0.5181664
676,6.7599999999999,2.0201788,1.9870672,-0.655831,1.5703819,0.96959585,0.3315471
677,6.7699999999999,1.8632795,1.969871,-0.5528981,0.027794369,2.01555,-0.54733527
678,6.7799999999999,1.6758906,1.9574922,-0.4200855,-0.344528,2.122146,-1.1275045
679,6.7899999999999,0.90255266,1.6844885,-0.032684833,0.32803464,0.89888823,-2.4541512
680,6.7999999999998995,0.4867357,1.551249,0.2532465,0.32803464,0.89888823,-2.4541512
681,6.809999999999899,0.34020278,1.490148,0.32123825,0.8184067,0.48181996,-2.5998425
682,6.819999999999899,0.22641563,1.3587989,0.3192869,1.6763669,-0.03436117,-2.8345675
683,6.829999999999899,0.22641563,1.3587989,0.3192869,1.6763669,-0.03436117,-2.8345675
684,6.839999999999899,0.43539125,1.1012228,0.29044378,2.0453296,0.4092797,-3.2450688
685,6.849999999999898,0.43539125,1.1012228,0.29044378,2.0453296,0.4092797,-3.2450688
686,6.859999999999898,0.92663944,0.8807221,0.33508053,2.112983,0.7637343,-3.9678752
687,6.869999999999898,1.0518296,0.81126684,0.33038515,2.1642957,0.8210029,-4.2284093
688,6.879999999999898,1.355506,0.6949186,0.4016088,2.3069327,0.77106464,-4.671439
689,6.8899999999998975,1.6764392,0.6553431,0.5061881,2.5427265,0.6232353,-4.984966
690,6.899999999999897,1.6764392,0.6553431,0.5061881,2.5427265,0.6232353,-4.984966
691,6.909999999999897,1.6764392,0.6553431,0.5061881,2.5427265,0.6232353,-4.984966
692,6.919999999999897,1.6764392,0.6553431,0.5061881,2.5427265,0.6232353,-4.984966
693,6.929999999999897,1.6764392,0.6553431,0.5061881,2.5427265,0.6232353,-4.984966
694,6.9399999999998965,4.034443,0.48941877,0.76967907,3.5756998,-0.16905695,-6.090937
695,6.949999999999896,5.535384,0.043539125,0.62936604,3.752545,-0.40225476,-6.072917
696,6.959999999999896,5.9622383,-0.49454108,-0.32556778,2.250275,-0.903317,-6.6002464
697,6.969999999999896,5.9622383,-0.49454108,-0.32556778,2.250275,-0.903317,-6.6002464
698,6.979999999999896,5.9622383,-0.49454108,-0.32556778,2.250275,-0.903317,-6.6002464
699,6.989999999999895,5.9622383,-0.49454108,-0.32556778,2.250275,-0.903317,-6.6002464
700,6.999999999999895,5.9622383,-0.49454108,-0.32556778,2.250275,-0.903317,-6.6002464
701,7.009999999999895,4.127985,-2.0705476,0.18513274,-1.8342756,0.54183745,-6.5280113
702,7.019999999999895,1.4599023,-2.6184454,1.4477674,0.65194595,-0.13576481,-5.753434
703,7.0299999999998946,1.4599023,-2.6184454,1.4477674,0.65194595,-0.13576481,-5.753434
704,7.039999999999894,1.4599023,-2.6184454,1.4477674,0.65194595,-0.13576481,-5.753434
705,7.049999999999894,1.4599023,-2.6184454,1.4477674,0.65194595,-0.13576481,-5.753434
706,7.059999999999894,0.7197371,-2.7744913,1.0182911,2.0691533,-0.73853606,-5.169447
707,7.069999999999894,-0.56460613,-2.7297325,-0.00042685418,3.0560062,-0.63804877,-1.8887954
708,7.0799999999998935,-1.19135,-2.7618074,-0.5857659,2.6580274,-0.39019018,-1.002888
709,7.089999999999893,-1.19135,-2.7618074,-0.5857659,2.6580274,-0.39019018,-1.002888
710,7.099999999999893,-1.4155095,-2.7758937,-0.73303056,1.2554808,-0.34590244,1.0103711
711,7.109999999999893,-1.2320231,-2.8179693,-0.5338116,-0.30008754,-0.018478673,3.480252
712,7.119999999999893,-1.2320231,-2.8179693,-0.5338116,-0.30008754,-0.018478673,3.480252
713,7.129999999999892,-1.0923198,-2.7789426,-0.48661375,-0.61575216,-0.15210545,4.40724
714,7.139999999999892,-0.997985,-2.7299154,-0.44094035,-0.70432764,-0.3642284,4.9544225
715,7.149999999999892,-0.79260725,-2.6325927,-0.4200855,-0.8671232,-0.7820602,6.118579
716,7.159999999999892,0.36008197,-2.3018417,-0.41356072,-1.2486086,-1.0509937,7.3662715
717,7.169999999999892,0.9092604,-2.0988421,-0.4671004,-1.6091717,-0.93218035,7.4931784
718,7.179999999999891,1.2862337,-1.885171,-0.5166155,-2.1158845,-0.71959925,7.363217
719,7.189999999999891,1.2809284,-1.700892,-0.48484537,-2.8573222,-0.5719226,7.233103
720,7.199999999999891,1.1729952,-1.6863788,-0.3257507,-3.3183727,-0.6243043,7.5790052
721,7.209999999999891,1.3734949,-1.5875926,-0.0023781876,-3.4574974,-1.093296,8.709258
722,7.2199999999998905,1.6630849,-1.4785008,0.17074168,-3.350596,-1.4140003,9.280112
723,7.22999999999989,4.126095,-0.54600745,0.6512575,-2.3674083,-2.1400137,10.943345
724,7.23999999999989,5.965592,0.354106,0.45880726,-2.2382102,-0.8373435,10.612103
725,7.24999999999989,7.466594,1.4775862,0.20763406,-3.067918,0.8541423,9.08662
726,7.25999999999989,7.003092,2.23013,0.64644015,-4.4150286,2.300213,6.519001
727,7.269999999999889,6.457633,2.365382,1.0111566,-4.6088257,2.535549,5.6494346
728,7.279999999999889,4.832599,2.0992079,1.6628408,-3.5224018,1.984243,3.8846447
729,7.289999999999889,4.250248,2.1170137,1.9360276,-2.1108449,1.2452488,3.3154712
730,7.299999999999889,3.8830926,2.1950672,1.9006596,-0.3651447,0.4877759,2.8428142
731,7.309999999999889,3.481057,2.2595222,1.0601228,1.4535538,-0.023060163,2.1015291
732,7.319999999999888,3.3136692,2.2901335,0.7641909,1.6520851,0.042455133,1.8125899
733,7.329999999999888,1.9679806,2.1464667,-0.10372557,0.38362336,1.24082,0.54809886
734,7.339999999999888,1.9679806,2.1464667,-0.10372557,0.38362336,1.24082,0.54809886
735,7.349999999999888,0.9745081,1.9748714,0.11110405,-0.571159,2.0201313,0.06307184
736,7.3599999999998875,0.7399212,1.920112,0.20787798,-0.58032197,2.0477731,-0.09132435
737,7.369999999999887,0.526799,1.8424854,0.41234115,-0.58032197,2.0477731,-0.09132435
738,7.379999999999887,0.354106,1.7615663,0.57728976,-0.11377365,1.8266398,-0.59391373
739,7.389999999999887,0.354106,1.7615663,0.57728976,-0.11377365,1.8266398,-0.59391373
740,7.399999999999887,0.056039855,1.5444803,0.48295498,2.2375994,0.3051272,-1.8548924
741,7.4099999999998865,0.060369372,1.4594145,0.39386442,2.2375994,0.3051272,-1.8548924
742,7.419999999999886,0.2066584,1.3443466,0.2549539,2.906955,-0.046578474,-2.325106
743,7.429999999999886,0.33690992,1.2836725,0.23605035,2.8586967,0.067500606,-2.591443
744,7.439999999999886,0.5966811,1.2262301,0.2183664,2.7574458,0.21410827,-2.848312
745,7.449999999999886,0.889869,1.1496402,0.24080674,2.6371052,0.4250095,-3.297756
746,7.459999999999885,0.9857282,1.1015277,0.2394042,2.601217,0.49648073,-3.513544
747,7.469999999999885,1.3637991,0.9510311,0.2977003,2.532342,0.5645922,-4.181067
748,7.479999999999885,1.747175,0.84267116,0.4378304,2.6111436,0.45188758,-4.746423
749,7.489999999999885,2.0538394,0.7957171,0.5535689,2.7867672,0.24602598,-5.1567717
750,7.4999999999998845,2.5069757,0.7045533,0.7273595,3.1407638,-0.14034629,-5.501605
751,7.509999999999884,3.9801104,0.6269878,0.9121874,3.3977852,-0.37690386,-5.5553613
752,7.519999999999884,4.5214224,0.5900344,0.80742514,3.9877284,-0.7476991,-5.425247
753,7.529999999999884,5.904552,0.11915329,-0.027196707,4.1044035,-0.7677049,-5.448918
754,7.539999999999884,5.9746776,-0.28263843,-0.6716246,2.2734878,-1.0520626,-6.5848217
755,7.5499999999998835,5.9746776,-0.28263843,-0.6716246,2.2734878,-1.0520626,-6.5848217
756,7.559999999999883,5.514468,-1.3777024,-0.55161756,-1.9184223,-0.8765916,-7.0193
757,7.569999999999883,4.685334,-2.1821396,0.1823887,-3.4121406,-0.21700987,-6.983717
758,7.579999999999883,3.8661404,-2.6290557,1.1274438,-3.8913643,0.5529858,-6.6914177
759,7.589999999999883,2.7962606,-2.8339458,2.0354235,-2.5152376,1.3547463,-6.1404176
760,7.599999999999882,2.7962606,-2.8339458,2.0354235,-2.5152376,1.3547463,-6.1404176
761,7.609999999999882,2.7962606,-2.8339458,2.0354235,-2.5152376,1.3547463,-6.1404176
762,7.619999999999882,2.7962606,-2.8339458,2.0354235,-2.5152376,1.3547463,-6.1404176
763,7.629999999999882,-0.2936757,-3.269093,0.12927583,5.121647,-0.91889405,-3.2508721
764,7.6399999999998816,-0.95292145,-3.1049373,-0.43978173,4.8516445,-0.61819565,-1.9043725
765,7.649999999999881,-1.1927526,-3.0035899,-0.74358,2.9399416,0.1441642,0.7779369
766,7.659999999999881,-1.4085578,-2.9339516,-1.2490363,2.9399416,0.1441642,0.7779369
767,7.669999999999881,-1.3987402,-2.8694966,-1.3881298,1.7220291,0.10277808,1.9191859
768,7.679999999999881,-1.3987402,-2.8694966,-1.3881298,1.7220291,0.10277808,1.9191859
769,7.6899999999998805,-1.3987402,-2.8694966,-1.3881298,1.7220291,0.10277808,1.9191859
770,7.69999999999988,-1.3987402,-2.8694966,-1.3881298,1.7220291,0.10277808,1.9191859
771,7.70999999999988,-1.3987402,-2.8694966,-1.3881298,1.7220291,0.10277808,1.9191859
772,7.71999999999988,-1.2867824,-2.7450993,-1.2520853,0.16905695,0.070554934,3.1622968
773,7.72999999999988,0.04268542,-2.0429242,-0.21037814,-1.3556627,-1.374905,6.01519
774,7.739999999999879,0.04268542,-2.0429242,-0.21037814,-1.3556627,-1.374905,6.01519
775,7.749999999999879,0.113421254,-1.943772,-0.2800773,-1.4242324,-1.3197744,6.3595653
776,7.759999999999879,0.113421254,-1.943772,-0.2800773,-1.4242324,-1.3197744,6.3595653
777,7.769999999999879,0.113421254,-1.943772,-0.2800773,-1.4242324,-1.3197744,6.3595653
778,7.779999999999879,0.2655643,-1.8604745,-0.28495565,-1.7230982,-1.1522446,6.947829
779,7.789999999999878,2.514049,-1.2091559,0.016586334,-2.510656,-1.4205672,8.745911
780,7.799999999999878,3.6243577,-0.7851068,0.31635994,-2.479502,-1.7004961,9.853256
781,7.809999999999878,4.9628506,-0.18574256,0.45057508,-2.479502,-1.7004961,9.853256
782,7.819999999999878,6.574957,0.9319446,0.45002624,-2.4700336,-0.16035213,8.945358
783,7.8299999999998775,6.7143555,1.4989899,0.70760226,-2.8808405,0.72204274,7.4478216
784,7.839999999999877,6.175177,2.031887,1.1878132,-2.8330402,1.509448,5.7908497
785,7.849999999999877,5.62045,2.1328683,1.0787215,-2.3619106,1.9230038,4.508796
786,7.859999999999877,5.62045,2.1328683,1.0787215,-2.3619106,1.9230038,4.508796
787,7.869999999999877,3.7674758,2.145918,0.6540625,-2.3619106,1.9230038,4.508796
788,7.879999999999876,3.2823255,2.0896342,0.6021083,-1.4650075,1.5632042,1.8196149
789,7.889999999999876,3.2823255,2.0896342,0.6021083,-0.8877399,1.2878567,0.6757697
790,7.899999999999876,2.7470505,2.034631,0.5939981,-0.8877399,1.2878567,0.6757697
791,7.909999999999876,2.4254465,2.0308502,0.63863486,-0.61285055,1.1829406,0.32559118
792,7.919999999999876,1.2356209,1.9763349,0.5221036,0.79733187,1.2131784,-0.8071057
793,7.929999999999875,0.822304,1.9196852,0.35489875,1.3720033,1.3090842,-1.161102
794,7.939999999999875,0.45807552,1.8255334,0.12384869,1.8707749,1.3336716,-1.4419475
795,7.949999999999875,0.24367274,1.7455286,-0.0834195,2.240043,1.2904528,-1.6815593
796,7.959999999999875,0.06988213,1.7149171,-0.33038515,2.4738514,1.094976,-2.0328069
797,7.9699999999998745,0.0014025208,1.6923548,-0.39612067,2.4914138,0.9042333,-2.2521074
798,7.979999999999874,-0.26641798,1.5299064,-0.5215548,2.258827,0.46288314,-2.552806
799,7.989999999999874,-0.3225798,1.3984352,-0.3811198,1.8932241,0.26160303,-2.595872
800,7.999999999999874,-0.20025559,1.2867215,-0.2128173,1.5995506,0.20693061,-2.617252
801,8.009999999999874,0.14689882,1.173849,0.09268834,1.55847,0.0786489,-2.7220156
802,8.019999999999873,0.2642227,1.1397616,0.17519315,1.6658295,-0.06505715,-2.882215
803,8.029999999999873,0.6188166,1.009876,0.47710103,2.0948095,-0.40103304,-3.324634
804,8.039999999999873,0.9242003,0.96920294,0.579607,2.4480424,-0.550695,-3.6215146
805,8.049999999999873,1.2047654,0.96804434,0.59997404,2.6751316,-0.5545129,-3.8916698
806,8.059999999999873,2.2672055,0.9853624,0.6006448,2.9323058,-0.61117065,-4.4318275
807,8.069999999999872,2.7114387,1.0142665,0.7124196,2.917187,-0.5563455,-5.261535
808,8.079999999999872,3.3745263,0.96901995,0.8215113,2.917187,-0.5563455,-5.261535
809,8.089999999999872,3.3745263,0.96901995,0.8215113,2.8834367,-0.50320023,-5.4319663
810,8.099999999999872,5.916443,0.5710089,0.56728923,2.9605584,-0.10247265,-5.5127535
811,8.109999999999872,6.4817805,0.26910108,0.013781292,2.5396724,-0.24266621,-6.042068
812,8.119999999999871,6.4172034,-0.042319544,-0.46301484,0.9091202,-0.70707655,-6.883535
813,8.129999999999871,6.0995636,-0.5427756,-0.43130565,-0.8576548,-0.6750061,-7.2776957
814,8.139999999999871,6.0995636,-0.5427756,-0.43130565,-0.8576548,-0.6750061,-7.2776957
815,8.14999999999987,4.6709433,-2.1007323,0.8005955,-3.523776,0.5348125,-7.309308
816,8.15999999999987,4.092373,-2.376724,1.4117287,-3.1250339,1.0175488,-7.0029593
817,8.16999999999987,3.0305429,-2.5475876,2.1297584,-1.4370605,1.1607966,-6.5561113
818,8.17999999999987,2.092683,-2.6827173,1.9193194,1.5462526,0.70341134,-5.820935
819,8.18999999999987,1.4095944,-2.8019319,1.1668974,3.9333613,-0.18341228,-5.0266576
820,8.19999999999987,0.945299,-2.8537033,0.53033584,5.1897583,-0.79458296,-4.381278
821,8.20999999999987,0.6064988,-2.880229,0.05652769,5.3658404,-0.9211848,-4.139834
822,8.21999999999987,-0.06512575,-2.8746188,-0.6949186,4.7499356,-0.8921687,-3.4074063
823,8.229999999999869,-0.06512575,-2.8746188,-0.6949186,4.7499356,-0.8921687,-3.4074063
824,8.239999999999869,-0.34093451,-2.8758996,-0.85212296,1.30435,-0.3678936,-0.7985536
825,8.249999999999869,-1.3323338,-3.1451225,-1.1360419,1.30435,-0.3678936,-0.7985536
826,8.259999999999868,-1.9679806,-3.2326887,-1.0809166,-0.5519168,-0.8970556,1.6201674
827,8.269999999999868,-1.8719994,-3.240494,-0.8259628,-1.430341,-1.1049025,3.3735032
828,8.279999999999868,-1.8719994,-3.240494,-0.8259628,-1.430341,-1.1049025,3.3735032
829,8.289999999999868,-1.8719994,-3.240494,-0.8259628,-1.430341,-1.1049025,3.3735032
830,8.299999999999867,-1.8719994,-3.240494,-0.8259628,-1.430341,-1.1049025,3.3735032
831,8.309999999999867,-1.8719994,-3.240494,-0.8259628,-1.430341,-1.1049025,3.3735032
832,8.319999999999867,-1.8719994,-3.240494,-0.8259628,-1.430341,-1.1049025,3.3735032
833,8.329999999999867,-1.8719994,-3.240494,-0.8259628,-1.430341,-1.1049025,3.3735032
834,8.339999999999867,0.41953668,-2.3133056,-0.30270058,-2.1760547,-1.5273159,7.8004436
835,8.349999999999866,0.41953668,-2.3133056,-0.30270058,-3.0546317,-1.5858061,8.339532
836,8.359999999999866,1.5106369,-1.6727805,-0.36788732,-2.6667323,-1.638646,8.065712
837,8.369999999999866,2.0768895,-1.3477006,0.047990605,-3.7368155,-2.0098994,9.915107
838,8.379999999999866,3.554293,-0.67339295,0.6319881,-3.7368155,-2.0098994,9.915107
839,8.389999999999866,3.985903,-0.5082004,0.7068705,-3.1468723,-2.6525297,11.037113
840,8.399999999999865,3.985903,-0.5082004,0.7068705,-2.5492933,-2.6105325,11.239004
841,8.409999999999865,3.985903,-0.5082004,0.7068705,-2.5492933,-2.6105325,11.239004
842,8.419999999999865,3.985903,-0.5082004,0.7068705,-2.5492933,-2.6105325,11.239004
843,8.429999999999865,5.7946672,2.566796,1.244219,-2.612976,1.0209086,5.4713674
844,8.439999999999864,4.75857,2.385871,1.2379991,-1.5850426,1.2835805,3.015231
845,8.449999999999864,3.6280165,2.3318434,0.9934116,-0.20021108,0.73731434,1.7502817
846,8.459999999999864,3.6280165,2.3318434,0.9934116,-0.20021108,0.73731434,1.7502817
847,8.469999999999864,3.6280165,2.3318434,0.9934116,-0.20021108,0.73731434,1.7502817
848,8.479999999999864,3.6280165,2.3318434,0.9934116,-0.20021108,0.73731434,1.7502817
849,8.489999999999863,2.569662,2.3177574,0.7676058,1.2308935,0.41325033,0.23884831
850,8.499999999999863,1.0008512,2.098903,0.13177599,1.4859297,1.120785,-0.28863382
851,8.509999999999863,0.73595756,1.9985921,0.06555261,1.4001031,1.5373951,-0.4008803
852,8.519999999999863,0.73595756,1.9985921,0.06555261,1.1911873,2.0570886,-0.547488
853,8.529999999999863,0.68924755,1.8233382,-0.08140719,1.02717,2.2472205,-0.8332202
854,8.539999999999862,0.6285733,1.797239,-0.04463675,1.0354166,2.2110267,-1.3394748
855,8.549999999999862,0.46435636,1.5647255,0.08768804,1.2220359,1.9572122,-2.118939
856,8.559999999999862,0.4369767,1.4881966,0.14391084,1.41904,1.7650951,-2.447279
857,8.569999999999862,0.3608747,1.2448897,0.2508683,1.8428277,1.4886786,-2.914438
858,8.579999999999862,0.31038398,1.0410364,0.29867595,2.3064744,1.1786644,-3.251483
859,8.589999999999861,0.33355603,0.89303994,0.31294507,2.653904,0.91446525,-3.4440582
860,8.599999999999861,0.43008605,0.7649227,0.28818756,3.0254629,0.5149594,-3.608839
861,8.60999999999986,0.638208,0.7338843,0.24275808,3.2371275,0.16203201,-3.728416
862,8.61999999999986,1.6821103,0.81724274,0.22696446,3.2409456,-0.004276057,-3.9503129
863,8.62999999999986,1.6821103,0.81724274,0.22696446,3.1348078,-0.07513642,-4.355622
864,8.63999999999986,2.1585405,0.8502936,0.3650823,2.9825497,-0.023365596,-4.999016
865,8.64999999999986,2.9146824,0.8595624,0.56045955,2.877328,0.108123146,-5.590028
866,8.65999999999986,2.9146824,0.8595624,0.56045955,2.8447995,0.13209961,-5.7334285
867,8.66999999999986,5.2611,0.82553595,0.7876069,3.5786014,-0.1133155,-5.614004
868,8.67999999999986,5.9261994,0.5950957,0.30489585,3.5786014,-0.1133155,-5.614004
869,8.68999999999986,5.972056,0.10768921,-0.39233997,2.605951,-0.19700404,-6.7477703
870,8.699999999999859,5.7102113,-0.39929157,-0.6767468,0.88224214,-0.46120325,-7.2077518
871,8.709999999999859,5.2118287,-1.0287796,-0.72028595,-0.7725918,-0.7122689,-7.330841
872,8.719999999999859,4.5025187,-1.6597309,-0.2303793,-2.7365236,-0.63438356,-7.363217
873,8.729999999999858,3.8082101,-2.1550038,0.43734258,-3.6745071,-0.18478674,-7.182554
874,8.739999999999858,3.8082101,-2.1550038,0.43734258,-3.6745071,-0.18478674,-7.182554
875,8.749999999999858,2.1886034,-2.5675888,1.7614442,-2.4063509,0.869414,-6.3200116
876,8.759999999999858,1.1864717,-2.7931507,1.747358,0.6898196,0.6792821,-5.350416
877,8.769999999999857,0.62662196,-2.9101698,1.1512867,3.2461379,-0.37995818,-4.575075
878,8.779999999999857,-0.05689356,-2.9690757,0.5100298,4.582253,-1.3017539,-3.9231293
879,8.789999999999857,-0.46027076,-2.9557822,-0.1662292,5.034446,-1.8869628,-2.989269
880,8.799999999999857,-0.46027076,-2.9557822,-0.1662292,5.034446,-1.8869628,-2.989269
881,8.809999999999857,-0.54308045,-2.9618192,-0.36868006,4.8995976,-1.8420641,-2.6282477
882,8.819999999999856,-0.54308045,-2.9618192,-0.36868006,2.6141977,-0.20005837,-0.23930646
883,8.829999999999856,-0.54308045,-2.9618192,-0.36868006,2.6141977,-0.20005837,-0.23930646
884,8.839999999999856,-2.0178008,-3.201955,-0.98969185,0.012675454,-0.0355829,3.0051515
885,8.849999999999856,-1.3925203,-3.1764047,-0.60021794,-1.6717855,0.05681047,6.4464607
886,8.859999999999856,-0.8301094,-3.0474339,-0.3714851,-1.9497292,0.01038471,7.5238743
887,8.869999999999855,-0.8301094,-3.0474339,-0.3714851,-1.9497292,0.01038471,7.5238743
888,8.879999999999855,0.34410545,-2.6142988,-0.2373919,-1.9836322,-0.36163223,8.561429
889,8.889999999999855,0.6310734,-2.4023352,-0.20299964,-1.9741638,-0.50320023,8.588918
890,8.899999999999855,0.92139524,-2.1093915,-0.24019694,-2.1681135,-0.61422503,8.596859
891,8.909999999999854,0.92139524,-2.1093915,-0.24019694,-2.1681135,-0.61422503,8.596859
892,8.919999999999854,0.92139524,-2.1093915,-0.24019694,-2.1681135,-0.61422503,8.596859
893,8.929999999999854,1.4319129,-1.6382664,-0.11323831,-3.1175508,-0.48915035,8.870375
894,8.939999999999854,1.7197344,-1.487099,0.11976309,-3.2026138,-0.7478518,9.286984
895,8.949999999999854,2.7480872,-1.2219615,0.56680137,-2.5642595,-1.5922203,9.959852
896,8.959999999999853,4.2458572,-0.7730329,0.89986956,-0.9503536,-1.3083206,8.6526
897,8.969999999999853,5.843878,0.8818807,0.37508285,-0.9503536,-1.3083206,8.6526
898,8.979999999999853,5.843878,0.8818807,0.37508285,-1.0325149,-0.32528573,6.9695144
899,8.989999999999853,5.5580683,1.2070217,0.20110929,-1.6423112,0.11056661,6.3546786
900,8.999999999999853,5.5580683,1.2070217,0.20110929,-1.6423112,0.11056661,6.3546786
901,9.009999999999852,5.5580683,1.2070217,0.20110929,-1.6423112,0.11056661,6.3546786
902,9.019999999999852,5.5580683,1.2070217,0.20110929,-1.6423112,0.11056661,6.3546786
903,9.029999999999852,4.2246976,1.8519983,1.5730187,-2.437505,1.4903585,2.9466612
904,9.039999999999852,3.1716485,1.9041355,1.1617751,-0.08032878,1.0939069,2.1471913
905,9.049999999999851,2.9615753,2.0107882,0.9507263,0.6067419,0.9036224,1.8072448
906,9.059999999999851,2.7024748,2.0410948,0.5603376,1.0566442,0.9094256,1.3281738
907,9.069999999999851,2.537953,2.0267036,0.35032532,1.0207558,1.1307116,0.89995724
908,9.07999999999985,2.2606196,2.002312,0.112445585,0.75594574,1.5114334,0.43188173
909,9.08999999999985,2.116587,1.9661512,0.0617719,0.32620203,2.048384,-0.30573806
910,9.09999999999985,1.9654197,1.9399302,0.2335502,0.20234911,2.329229,-1.2620476
911,9.10999999999985,1.6761343,1.8274847,0.52149385,0.5549711,2.1641428,-2.0726657
912,9.11999999999985,1.3311143,1.6883303,0.6479037,1.239751,1.7487545,-2.7724118
913,9.12999999999985,0.6935161,1.1837885,0.4591731,2.2104158,1.1753048,-3.3609805
914,9.13999999999985,0.6935161,1.1837885,0.4591731,2.2104158,1.1753048,-3.3609805
915,9.14999999999985,0.6935161,1.1837885,0.4591731,2.2104158,1.1753048,-3.3609805
916,9.15999999999985,0.6935161,1.1837885,0.4591731,2.2104158,1.1753048,-3.3609805
917,9.169999999999849,0.55466646,0.986582,0.3252019,3.4341316,0.05467244,-3.758501
918,9.179999999999849,0.9532263,0.5887539,0.13476396,3.1520646,-0.058643065,-3.9923098
919,9.189999999999849,0.9532263,0.5887539,0.13476396,3.1520646,-0.058643065,-3.9923098
920,9.199999999999848,1.1598238,0.55613,0.20836583,3.07983,-0.21197024,-4.212221
921,9.209999999999848,2.1169527,0.48252818,0.47374716,3.2666018,-0.6995934,-5.34446
922,9.219999999999848,2.3894687,0.40971902,0.5100298,3.2424726,-0.65179324,-5.871942
923,9.229999999999848,2.5753942,0.28855342,0.51387143,3.0944905,-0.41554108,-6.439131
924,9.239999999999847,2.6261897,0.17061971,0.5733261,2.9943087,-0.32360587,-6.5906253
925,9.249999999999847,3.105852,0.030245667,0.70607775,2.911231,-0.25686884,-6.508158
926,9.259999999999847,3.7744884,-0.15238695,0.6789421,3.0497448,-0.27152961,-6.304129
927,9.269999999999847,4.3624496,-0.2935537,0.50045604,3.0546317,-0.4972443,-6.2150955
928,9.279999999999847,4.751802,-0.50448066,0.24477036,2.694832,-0.946383,-6.3207755
929,9.289999999999846,4.751802,-0.50448066,0.24477036,2.694832,-0.946383,-6.3207755
930,9.299999999999846,4.751802,-0.50448066,0.24477036,-0.19379699,-1.6401732,-6.6248336
931,9.309999999999846,4.858881,-1.1935452,-0.2212934,2.0418172,-1.3266466,-6.4212627
932,9.319999999999846,4.5587416,-1.8454126,0.26074693,-2.514016,-0.48456886,-6.8656673
933,9.329999999999846,2.8729117,-2.6971695,1.7171124,-1.6890424,0.32513303,-6.7757173
934,9.339999999999845,1.8273017,-2.9571238,1.8103495,1.6743816,0.38866302,-5.5338283
935,9.349999999999845,0.10482319,-3.389893,0.96499527,1.6743816,0.38866302,-5.5338283
936,9.359999999999845,-1.0424389,-3.368977,0.19806033,3.1005993,-0.4905248,-4.451986
937,9.369999999999845,-1.0424389,-3.368977,0.19806033,4.0388885,-1.6224581,-2.3532057
938,9.379999999999844,-1.349408,-3.1800635,-0.4696006,3.9277108,-1.5402967,-0.84940815
939,9.389999999999844,-1.3180037,-3.158721,-0.85017157,2.4126122,-0.11682798,2.2522602
940,9.399999999999844,-1.2220836,-3.0750575,-0.9432867,0.9112582,0.538325,4.243986
941,9.409999999999844,-1.0107297,-2.9968822,-0.8207796,0.24251351,0.7528914,5.1747923
942,9.419999999999844,-0.5843634,-2.8341897,-0.60607195,-0.54229563,0.9842566,6.480364
943,9.429999999999843,-0.33117786,-2.7285738,-0.54490983,-0.81077087,1.0213667,7.086495
944,9.439999999999843,0.15500905,-2.526733,-0.54003155,-1.091158,0.7826711,7.779369
945,9.449999999999843,0.44496498,-2.3637965,-0.5800948,-1.2211196,0.4978552,7.9791217
946,9.459999999999843,0.79199743,-1.9337715,-0.7354088,-1.7654005,-0.21242839,7.9223113
947,9.469999999999843,0.8560255,-1.8171792,-0.8263287,-2.2913556,-0.5503896,7.8018184
948,9.479999999999842,0.8716362,-1.7663226,-0.81120586,-2.9550607,-0.7461719,7.824115
949,9.489999999999842,1.3221503,-1.5606399,-0.5982056,-3.8649445,-0.84940815,7.9044437
950,9.499999999999842,1.3221503,-1.5606399,-0.5982056,-4.5410194,-0.86101454,7.9136066
951,9.509999999999842,1.481001,-1.5238085,-0.36660674,-5.071556,-0.94225967,8.030587
952,9.519999999999841,1.481001,-1.5238085,-0.36660674,-5.071556,-0.94225967,8.030587
953,9.529999999999841,1.9853597,-1.387703,0.20989029,-5.071556,-0.94225967,8.030587
954,9.539999999999841,3.8578472,-0.7211396,1.413863,-3.3267722,-2.6890287,8.769276
955,9.54999999999984,5.6319747,0.73394525,1.4469137,-0.1777618,-1.7386752,7.3942184
956,9.55999999999984,5.945591,1.5273452,0.6961382,-0.35934147,-0.5560401,6.5257206
957,9.56999999999984,5.945591,1.5273452,0.6961382,-0.35934147,-0.5560401,6.5257206
958,9.57999999999984,5.274698,1.923466,0.4311837,-2.819143,1.9654589,3.881896
959,9.58999999999984,4.8169274,1.890964,0.75297076,-3.1609223,2.0928242,3.1085405
960,9.59999999999984,3.8185763,1.8279725,1.3981913,-2.4468207,1.3521502,1.988061
961,9.60999999999984,3.5606954,1.7843724,1.5242963,-1.6288722,0.84788096,1.6614008
962,9.61999999999984,3.5606954,1.7843724,1.5242963,0.11255192,0.2846632,1.1623238
963,9.62999999999984,2.7037551,1.6609507,1.0080466,1.1010846,0.42195517,0.870483
964,9.639999999999839,2.4837425,1.6372907,0.74540937,1.40667,0.64812803,0.6805039
965,9.649999999999839,1.9451746,1.5974712,0.01975725,1.4978416,1.2538009,0.42424592
966,9.659999999999838,1.8460224,1.601191,-0.15817997,0.90392786,2.2679899,-0.30192015
967,9.669999999999838,1.6419251,1.5700307,-0.2061096,0.64721173,2.4593434,-1.0578659
968,9.679999999999838,1.4281931,1.5189911,-0.19793838,0.64721173,2.4593434,-1.0578659
969,9.689999999999838,0.921822,1.3672138,-0.06421106,0.6198755,2.4034493,-1.5410603
970,9.699999999999838,0.921822,1.3672138,-0.06421106,0.9109528,1.958434,-2.341141
971,9.709999999999837,0.921822,1.3672138,-0.06421106,0.9109528,1.958434,-2.341141
972,9.719999999999837,0.921822,1.3672138,-0.06421106,0.9109528,1.958434,-2.341141
973,9.729999999999837,0.8354146,1.3443466,-0.040429186,2.6499333,0.19517145,-2.8745792
974,9.739999999999837,0.17147341,1.1029302,-0.48313794,2.793334,-0.8185594,-3.024852
975,9.749999999999837,0.23726994,1.0872586,-0.47014937,2.4379632,-1.016327,-3.1609223
976,9.759999999999836,0.23726994,1.0872586,-0.47014937,2.4379632,-1.016327,-3.1609223
977,9.769999999999836,0.23726994,1.0872586,-0.47014937,2.4379632,-1.016327,-3.1609223
978,9.779999999999836,0.23726994,1.0872586,-0.47014937,2.4379632,-1.016327,-3.1609223
979,9.789999999999836,1.141652,1.100735,-0.14982581,0.6160576,-0.27488935,-4.889365
980,9.799999999999836,1.8199842,0.89303994,0.48521125,0.6073528,-0.18646662,-5.209153
981,9.809999999999835,2.3117814,0.6095478,1.399045,1.3351988,-0.1685988,-6.0939918
982,9.819999999999835,2.3117814,0.6095478,1.399045,2.2498167,-0.3387248,-6.219677
983,9.829999999999835,2.906633,0.5799119,1.4994167,3.2763758,-0.6711882,-5.999002
984,9.839999999999835,5.15585,0.36520424,1.0640866,4.767345,-1.2217305,-5.7303743
985,9.849999999999834,6.3693957,-0.21952501,-0.30684718,5.1159964,-1.2944235,-5.817575
986,9.859999999999834,6.3693957,-0.21952501,-0.30684718,4.945565,-1.509448,-6.2712955
987,9.869999999999834,6.345187,-0.8845028,-1.3587989,3.8221838,-1.7403551,-6.579477
988,9.879999999999834,5.8695498,-1.7402844,-0.7585198,-2.5017986,-0.88606006,-7.588168
989,9.889999999999834,5.265673,-2.356174,-0.19269417,-2.5017986,-0.88606006,-7.588168
990,9.899999999999833,3.553988,-3.0553613,1.3040395,-3.9500074,0.05421429,-7.722253
991,9.909999999999833,3.553988,-3.0553613,1.3040395,-2.6818511,2.2747095,-6.8226013
992,9.919999999999833,0.9760935,-3.3703797,1.7762011,-2.6818511,2.2747095,-6.8226013
993,9.929999999999833,0.16037522,-3.5230105,1.053598,0.7484626,1.2599095,-5.869957
994,9.939999999999833,-0.089822315,-3.5306938,0.67497844,4.5677447,-1.2780828,-3.5892916
995,9.949999999999832,-0.7832164,-3.3117785,-0.3682532,4.646241,-1.1078042,-1.951409
996,9.959999999999832,-0.9612756,-3.173539,-0.688028,3.6862664,-0.06582073,-0.6808093
997,9.969999999999832,-1.1131747,-3.1443908,-1.0193278,2.9793425,0.5288566,0.021838432
998,9.979999999999832,-1.2312304,-3.1357927,-1.3115399,1.2360858,0.93019503,1.6406313
999,9.989999999999831,-0.95456785,-3.0808506,-0.980484,0.65209866,0.84665924,1.8701639
1000,9.999999999999831,-0.95456785,-3.0808506,-0.980484,-0.7254025,0.2845105,3.1117475
