id,timestamp,acc_x,acc_y,acc_z,gyro_x,gyro_y,gyro_z
0,0,-3.887178,-0.3583136,4.8018656,3.382361,-4.457789,2.1994202
1,0.01,-3.600271,-0.48307696,4.4033055,3.7458258,-4.939151,2.03861
2,0.02,-3.3570251,-0.6685756,4.164328,4.289801,-4.995656,1.8855883
3,0.03,-3.0006628,-0.9843257,3.8053439,5.0794973,-4.772232,1.8811595
4,0.04,-2.8875465,-1.044939,3.6922274,6.049551,-4.215734,1.806634
5,0.05,-2.6910107,-1.1945208,3.176039,6.049551,-4.215734,1.806634
6,0.060000000000000005,-2.6650946,-1.2245836,2.8872416,6.049551,-4.215734,1.806634
7,0.07,-2.7465627,-1.2637932,2.6690583,8.236143,-2.295937,2.2174408
8,0.08,-2.7621124,-1.2961732,2.637593,8.274628,-2.2565362,2.3020456
9,0.09,-2.8821805,-1.4469746,2.3453808,8.318763,-2.2982278,2.7539332
10,0.09999999999999999,-2.930171,-1.6417422,2.1908596,8.347473,-2.7134633,4.04515
11,0.10999999999999999,-2.9326103,-1.8215698,2.049327,8.347473,-2.7134633,4.04515
12,0.11999999999999998,-2.9207191,-1.8674871,2.008105,8.506452,-2.5418103,4.6987753
13,0.12999999999999998,-2.860045,-2.02835,1.8844392,8.669552,-2.1311562,5.154481
14,0.13999999999999999,-2.860045,-2.02835,1.8844392,8.669552,-2.1311562,5.154481
15,0.15,-2.8547397,-2.0654254,1.8596207,8.967044,-1.0877982,6.115983
16,0.16,-2.9367568,-2.3089151,1.6239971,8.973305,-0.47433686,6.549086
17,0.17,-3.0657277,-2.3044028,1.747419,9.066615,0.2678644,6.994407
18,0.18000000000000002,-3.1039617,-2.2421432,1.3349559,9.1000595,0.9579894,7.9142175
19,0.19000000000000003,-3.1039617,-2.2421432,1.3349559,8.555015,0.43768495,8.36305
20,0.20000000000000004,-2.9759665,-1.9868842,0.90377223,7.2880807,-0.6001751,8.531802
21,0.21000000000000005,-2.9408424,-1.8959033,0.7996808,6.281222,-1.2157745,8.47545
22,0.22000000000000006,-2.856996,-1.7833357,0.93121284,5.404936,-1.4949399,8.286234
23,0.23000000000000007,-2.7418673,-1.7048556,1.0240232,5.189453,-0.57543504,7.9042907
24,0.24000000000000007,-2.5331357,-1.4345958,0.9974363,5.2140403,-0.3885103,7.8609195
25,0.25000000000000006,-2.6011882,-1.3577621,0.9329202,5.3586626,1.0534371,7.6283326
26,0.26000000000000006,-2.619421,-1.2631226,0.8414515,5.349805,1.724778,7.646353
27,0.2700000000000001,-2.619421,-1.2631226,0.8414515,5.349805,1.724778,7.646353
28,0.2800000000000001,-2.52594,-1.1750076,0.6507697,5.1902165,1.9532416,7.6126027
29,0.2900000000000001,-2.312757,-1.0057294,0.13622746,3.8854084,1.8246545,7.1816373
30,0.3000000000000001,-2.203787,-0.92700535,0.012073875,2.8948903,1.5262468,6.859711
31,0.3100000000000001,-2.2003112,-0.86608714,0.019635292,1.9885191,1.3063353,6.528317
32,0.3200000000000001,-2.1939695,-0.90169895,0.13610551,1.9885191,1.3063353,6.528317
33,0.3300000000000001,-2.060608,-0.980606,0.2051949,1.3654366,1.1798862,6.204406
34,0.34000000000000014,-2.060608,-0.980606,0.2051949,1.410946,1.1203269,6.2280765
35,0.35000000000000014,-1.5330772,-1.220742,-0.0078053335,1.5992452,0.9097311,6.5727572
36,0.36000000000000015,-0.41807315,-1.6335709,0.11128698,1.9868392,1.026559,7.1546063
37,0.37000000000000016,0.09415183,-1.8925494,0.27404037,2.7200303,1.4141531,6.977761
38,0.38000000000000017,0.29751736,-2.6005175,0.09963996,4.4457245,1.981036,5.8534636
39,0.3900000000000002,0.3170307,-3.043714,-0.43124464,5.0822463,2.2849414,5.5381045
40,0.4000000000000002,0.49222386,-3.523559,-1.4494138,4.9469395,2.738356,5.6688294
41,0.4100000000000002,1.1891547,-3.8378458,-2.4423985,2.6451993,2.6720774,6.187912
42,0.4200000000000002,1.4431939,-4.355925,-2.4900234,-0.20173825,1.9625573,6.4945664
43,0.4300000000000002,1.7800429,-5.0928583,-2.0950613,-3.7904189,0.10216721,6.7573915
44,0.4400000000000002,3.04719,-6.0785866,-0.39825493,-5.260466,-1.4013249,6.6320114
45,0.45000000000000023,3.6219795,-5.658257,-0.21348806,-4.6013427,-5.204725,3.2556064
46,0.46000000000000024,3.3038511,-5.280735,-0.5599717,-3.0008755,-5.445253,-0.08399397
47,0.47000000000000025,2.490633,-4.849368,-0.9437745,-2.0824397,-4.8380527,-2.6816983
48,0.48000000000000026,1.6966234,-4.4967256,-1.1626898,-1.6258179,-3.6176968,-4.633871
49,0.49000000000000027,0.22867186,-3.8071735,-1.2473289,-1.5778649,-1.9291124,-6.033974
50,0.5000000000000002,0.034148335,-3.6810684,-1.2181809,-1.6181821,-1.6415477,-6.207918
51,0.5100000000000002,-0.731811,-3.2037237,-1.0426219,-1.8506162,-0.7318166,-6.628957
52,0.5200000000000002,-1.5316137,-2.7061946,-0.7502267,-2.5540276,0.15347989,-6.684851
53,0.5300000000000002,-2.1795783,-2.1551259,-0.3234335,-2.5540276,0.15347989,-6.684851
54,0.5400000000000003,-2.2468383,-1.8588281,-0.056344748,-2.5540276,0.15347989,-6.684851
55,0.5500000000000003,-2.326782,-1.6908913,0.33941004,-4.001473,0.08078693,-6.6715646
56,0.5600000000000003,-2.344161,-1.7294911,0.4931995,-4.4587054,0.0070249503,-6.7207394
57,0.5700000000000003,-2.320806,-1.8987694,0.69876033,-4.9399147,-0.25121832,-6.8401637
58,0.5800000000000003,-2.3108056,-2.1962867,0.90182096,-5.4690766,-0.73655075,-7.1820955
59,0.5900000000000003,-2.318123,-2.2633028,0.99371654,-5.668066,-0.8142834,-7.2790704
60,0.6000000000000003,-2.4008107,-2.324038,1.2104365,-5.741064,-0.46105054,-7.40949
61,0.6100000000000003,-2.476303,-2.5719182,1.1075037,-5.862779,0.1470658,-7.484932
62,0.6200000000000003,-2.487889,-2.596371,1.1062231,-5.965252,0.45875978,-7.567551
63,0.6300000000000003,-2.5480754,-2.6541793,1.1165286,-6.084676,0.7838928,-7.657807
64,0.6400000000000003,-2.6486301,-2.7618074,1.1948259,-6.7277646,2.3425155,-8.234616
65,0.6500000000000004,-2.9462085,-3.0222497,1.3822148,-6.99288,2.5955665,-8.475908
66,0.6600000000000004,-3.237506,-3.2087848,1.37569,-7.5066175,2.6091583,-8.62725
67,0.6700000000000004,-3.237506,-3.2087848,1.37569,-7.5066175,2.6091583,-8.62725
68,0.6800000000000004,-3.4191022,-3.2732399,1.3907518,-8.104502,2.6175575,-8.628624
69,0.6900000000000004,-3.6569207,-3.3538542,1.4829525,-9.029352,2.8292224,-8.474992
70,0.7000000000000004,-3.869677,-3.4164796,1.793946,-10.332633,3.2662964,-7.8085375
71,0.7100000000000004,-4.3794627,-3.3262918,2.6224701,-10.339505,3.3686163,-7.1937017
72,0.7200000000000004,-4.3561687,-3.2294567,2.8213232,-10.127077,3.3953416,-6.4988427
73,0.7300000000000004,-4.0529804,-3.1536596,2.9277318,-9.967183,3.010802,-5.686392
74,0.7400000000000004,-3.9443765,-3.1223164,2.9143164,-9.9316,2.5051584,-5.2509975
75,0.7500000000000004,-3.7778423,-3.0539587,2.792785,-9.856616,2.2293527,-4.7343583
76,0.7600000000000005,-3.673507,-3.0829847,2.6597283,-9.76743,2.3506095,-4.0197988
77,0.7700000000000005,-3.597588,-3.1695752,2.5742967,-9.723753,2.7186558,-3.7922513
78,0.7800000000000005,-3.5349014,-3.035543,2.611311,-9.578215,3.9719985,-3.7108536
79,0.7900000000000005,-3.8587618,-2.699426,3.0244446,-9.195966,5.3145275,-3.8044686
80,0.8000000000000005,-4.3523273,-2.280133,3.3998327,-8.064948,6.842607,-3.7815614
81,0.8100000000000005,-4.9593744,-1.8126059,3.6852758,-7.2601333,6.9250736,-3.4784193
82,0.8200000000000005,-5.2584167,-1.5502734,3.845712,-6.893156,6.3568163,-3.061504
83,0.8300000000000005,-5.113835,-1.1167725,3.951938,-7.1298666,5.067127,-2.5842655
84,0.8400000000000005,-4.7785716,-0.21025616,4.954375,-7.621613,3.7077994,-2.5975518
85,0.8500000000000005,-5.6572204,0.71601737,6.261097,-6.7289863,4.469854,-2.9071076
86,0.8600000000000005,-5.9994354,1.153299,6.642156,-4.805982,5.7931404,-2.7291932
87,0.8700000000000006,-6.1509686,1.3998988,6.784786,-4.805982,5.7931404,-2.7291932
88,0.8800000000000006,-5.932236,3.5672812,7.2773757,-2.1966715,5.730832,-0.784351
89,0.8900000000000006,-6.5078187,3.8399804,7.552331,-1.9204077,3.862501,-0.12904528
90,0.9000000000000006,-7.012056,3.489167,7.6388607,-1.8683313,1.7898352,1.2084441
91,0.9100000000000006,-6.4395833,2.7025359,7.2960963,-1.9611828,-0.5177083,2.7146852
92,0.9200000000000006,-5.104688,1.3829466,6.7725897,-1.828167,-4.209778,3.855018
93,0.9300000000000006,-3.9688292,0.4803329,6.408118,-0.8866709,-5.9640303,3.7433822
94,0.9400000000000006,-3.9688292,0.4803329,6.408118,0.6944011,-6.5434356,3.097545
95,0.9500000000000006,-3.0862775,-0.8239506,5.4744654,3.0085113,-5.9357777,2.272877
96,0.9600000000000006,-2.9965162,-1.1486037,4.822477,4.652961,-4.85928,1.8347337
97,0.9700000000000006,-2.9583433,-1.2742816,4.335131,6.1010165,-3.6190712,1.4436272
98,0.9800000000000006,-2.971088,-1.299771,4.010295,6.683782,-3.1627548,1.3121386
99,0.9900000000000007,-3.0801797,-1.2154977,3.6061249,7.483863,-2.900999,1.5741998
100,1.0000000000000007,-3.2390306,-1.1239071,3.1492083,7.4716454,-2.9339857,1.6195564
101,1.0100000000000007,-3.2123826,-1.109455,3.0596297,7.307323,-3.3875532,1.8283197
102,1.0200000000000007,-3.2123826,-1.109455,3.0596297,7.113526,-4.1218133,2.1959078
103,1.0300000000000007,-3.664055,-1.3794707,2.7066214,7.226994,-4.89242,2.784782
104,1.0400000000000007,-3.664055,-1.3794707,2.7066214,7.8305287,-5.417153,3.7974439
105,1.0500000000000007,-3.6185038,-1.9618217,2.3409293,7.8305287,-5.417153,3.7974439
106,1.0600000000000007,-3.576977,-2.1595771,2.1527474,8.867778,-4.754059,4.4617596
107,1.0700000000000007,-3.576977,-2.1595771,2.1527474,8.867778,-4.754059,4.4617596
108,1.0800000000000007,-3.6650312,-2.4870353,1.8839513,9.540188,-3.0407345,5.360648
109,1.0900000000000007,-3.6921668,-2.5605154,1.8139474,9.627084,-2.3289237,5.956547
110,1.1000000000000008,-3.7533898,-2.61625,1.7316865,9.590126,-2.0781636,6.443254
111,1.1100000000000008,-3.7564387,-2.5803945,1.6722318,9.459859,-1.8903224,6.8858256
112,1.1200000000000008,-3.778452,-2.5183787,1.5903367,9.253539,-1.6444492,7.2944946
113,1.1300000000000008,-3.8295527,-2.4048965,1.3691653,8.749576,-1.2235631,7.9142175
114,1.1400000000000008,-3.8883367,-2.3050125,1.1894597,7.8183117,-1.1039863,8.172613
115,1.1500000000000008,-3.8796165,-2.2762303,1.1731173,7.104668,-0.9569204,8.316777
116,1.1600000000000008,-3.8040633,-2.0236547,1.0747578,6.44417,-0.8072584,8.351139
117,1.1700000000000008,-3.8326628,-1.9040745,1.0349995,5.744577,-0.6273586,8.352208
118,1.1800000000000008,-3.820406,-1.8191916,1.0282307,5.294522,-0.5349652,8.325635
119,1.1900000000000008,-3.7867453,-1.7858969,1.0037781,4.884631,-0.7451029,8.310516
120,1.2000000000000008,-3.5715501,-1.6715,0.85931844,4.5787406,-1.0778717,8.257371
121,1.2100000000000009,-3.3788557,-1.6596699,0.6910769,4.0494256,-0.8498663,7.9876738
122,1.2200000000000009,-3.2513483,-1.6824763,0.47429594,4.0494256,-0.8498663,7.9876738
123,1.2300000000000009,-3.1626236,-1.6806469,0.27245492,3.3690746,-0.79213953,7.793419
124,1.2400000000000009,-3.0360918,-1.6302171,0.11518965,2.6132815,-1.1888965,7.6863647
125,1.2500000000000009,-2.842178,-2.2141535,0.027318668,1.8574885,-2.0276144,7.5223475
126,1.260000000000001,-2.842178,-2.2141535,0.027318668,1.8574885,-2.0276144,7.5223475
127,1.270000000000001,-2.172505,-2.733818,0.19684075,3.6404514,-0.50228393,7.1002393
128,1.280000000000001,-1.9521261,-2.683876,0.16385102,4.143499,-0.021991149,6.9424834
129,1.290000000000001,-1.5673475,-2.6891813,-0.39703536,5.4092116,0.9251554,6.506173
130,1.300000000000001,-1.3456273,-2.6653996,-1.0022537,5.448307,0.86208355,6.6081877
131,1.310000000000001,-1.0151812,-2.7697346,-1.6331441,5.502216,0.9074403,6.5434356
132,1.320000000000001,-0.8213284,-3.0332258,-2.09872,3.2119296,-0.36880988,7.516697
133,1.330000000000001,-0.33855635,-3.6864958,-2.564113,1.4929546,-1.4196508,8.304102
134,1.340000000000001,0.86877024,-4.5557537,-2.7404037,-2.1685717,-3.3982434,9.00736
135,1.350000000000001,1.3217845,-5.072552,-2.7940044,-2.3765712,-3.371518,8.930086
136,1.360000000000001,2.2178123,-5.432329,-2.3930056,-2.7496572,-2.3339634,8.1330595
137,1.370000000000001,3.2862892,-5.6543546,-1.8167524,-2.1817052,-1.2392929,6.5687866
138,1.380000000000001,3.6026492,-5.58435,-1.4123995,-0.6046039,0.8741482,3.7146716
139,1.390000000000001,3.3273282,-5.3945827,-1.2883679,1.5674802,2.4549148,-1.0517572
140,1.400000000000001,1.644974,-4.6711874,-1.5022218,1.5125023,1.779145,-2.9002354
141,1.410000000000001,0.7664472,-4.227747,-1.6553406,1.5125023,1.779145,-2.9002354
142,1.420000000000001,0.6246096,-4.138473,-1.6583285,-1.0283916,0.25534168,-4.6312747
143,1.430000000000001,0.39258388,-3.939986,-1.6285096,-1.0283916,0.25534168,-4.6312747
144,1.440000000000001,-0.40557244,-2.9023035,-0.690711,-3.4322991,0.2843578,-6.0266438
145,1.450000000000001,-0.3217871,-2.9630387,-0.80022967,-3.4322991,0.2843578,-6.0266438
146,1.460000000000001,-1.132932,-2.479657,0.10817704,-3.6826012,1.2961034,-7.472256
147,1.470000000000001,-1.5230767,-2.2467775,0.38209546,-3.6826012,1.2961034,-7.472256
148,1.480000000000001,-1.5230767,-2.2467775,0.38209546,-2.4352143,1.4434745,-8.774011
149,1.490000000000001,-2.6944256,-1.6564381,0.53265303,-2.059685,0.8491027,-8.732471
150,1.500000000000001,-2.6944256,-1.6564381,0.53265303,-2.0227275,0.13072516,-8.46873
151,1.5100000000000011,-2.7270494,-1.3609331,0.35178882,-2.339461,-0.39584067,-8.278904
152,1.5200000000000011,-2.7270494,-1.3609331,0.35178882,-2.339461,-0.39584067,-8.278904
153,1.5300000000000011,-2.7019258,-1.3720922,0.32684833,-2.9972103,-0.66339964,-8.160854
154,1.5400000000000011,-2.7019258,-1.3720922,0.32684833,-2.9972103,-0.66339964,-8.160854
155,1.5500000000000012,-2.7730277,-1.4602681,0.62009716,-2.9972103,-0.66339964,-8.160854
156,1.5600000000000012,-2.698328,-1.5535053,0.66522175,-3.9774964,0.30451632,-8.122065
157,1.5700000000000012,-2.5689304,-1.5899708,0.66369724,-4.0201044,0.57009,-8.313112
158,1.5800000000000012,-2.5040483,-1.7247958,0.5938761,-4.233449,1.1305588,-8.797528
159,1.5900000000000012,-2.9497452,-2.1121964,0.54741,-4.765054,1.5486962,-9.333563
160,1.6000000000000012,-2.9497452,-2.1121964,0.54741,-5.4389915,1.7272215,-9.54645
161,1.6100000000000012,-2.9497452,-2.1121964,0.54741,-5.4389915,1.7272215,-9.54645
162,1.6200000000000012,-3.858152,-2.1000006,1.2184248,-6.8865895,1.3691018,-8.716131
163,1.6300000000000012,-3.7114968,-2.0979273,1.2730011,-6.8865895,1.3691018,-8.716131
164,1.6400000000000012,-3.0958514,-2.2254956,1.4936846,-8.331744,0.93966347,-5.915772
165,1.6500000000000012,-2.7579048,-2.370687,1.6163138,-8.541423,0.82512623,-5.7392316
166,1.6600000000000013,-2.590151,-2.4158728,1.6350955,-8.541423,0.82512623,-5.7392316
167,1.6700000000000013,-2.517281,-2.4281905,1.6179602,-8.799972,0.6892087,-5.747631
168,1.6800000000000013,-2.746075,-2.3966033,1.7455896,-8.894045,0.70646566,-5.2015176
169,1.6900000000000013,-2.6890593,-2.2433624,1.8254724,-8.839067,0.8385653,-4.516585
170,1.7000000000000013,-2.6618626,-2.1351855,1.9209048,-8.839067,0.8385653,-4.516585
171,1.7100000000000013,-2.5568566,-2.1052449,1.9279174,-8.181623,1.6018413,-2.9546025
172,1.7200000000000013,-2.4683146,-2.101769,1.943406,-7.7778416,2.1665864,-2.5518897
173,1.7300000000000013,-2.6418004,-2.1790297,1.8899884,-7.337408,2.8788552,-2.3452644
174,1.7400000000000013,-2.9678562,-2.3926396,1.7172954,-7.3326735,3.353803,-2.3092234
175,1.7500000000000013,-3.7047284,-2.6982672,1.7380283,-7.8325143,3.9390118,-2.2414174
176,1.7600000000000013,-4.458553,-3.0370066,2.1171968,-8.814327,4.86096,-1.8868101
177,1.7700000000000014,-5.104383,-3.0198712,3.0451777,-9.717033,5.97808,-1.2731959
178,1.7800000000000014,-5.8328404,-2.874497,3.7285712,-9.832487,5.994726,-1.0451905
179,1.7900000000000014,-6.175177,-2.777784,4.2789693,-10.2484865,4.8379,-0.019089539
180,1.8000000000000014,-5.2551236,-2.3378804,4.581487,-10.771692,2.9773571,0.32406402
181,1.8100000000000014,-4.525813,-2.0504854,4.944435,-10.771692,2.9773571,0.32406402
182,1.8200000000000014,-3.6052103,-1.2142172,6.484281,-9.8126335,3.7475057,-0.43279803
183,1.8300000000000014,-5.3826313,0.8149256,9.004733,-2.5115724,9.578062,-2.6482534
184,1.8400000000000014,-6.7278924,2.0481074,9.052601,-0.25244007,10.550254,-2.0899227
185,1.8500000000000014,-6.9602838,3.1856127,8.010529,-0.13942999,8.693987,-0.7811439
186,1.8600000000000014,-6.4320827,3.6547256,7.5456233,-2.7123945,3.7624717,0.7276932
187,1.8700000000000014,-5.8472924,3.6141133,7.5870886,-4.6680794,0.65316767,1.3458889
188,1.8800000000000014,-4.009563,1.9606023,8.321706,-6.4229426,-5.48725,3.2134566
189,1.8900000000000015,-2.294646,0.831085,8.587696,-5.3203306,-6.984786,3.4687984
190,1.9000000000000015,-1.4128873,-0.09299323,8.400734,-1.3396275,-7.5903063,2.2534819
191,1.9100000000000015,-1.5505784,-0.7984003,7.7106934,3.6459491,-6.45822,0.38896844
192,1.9200000000000015,-1.8532789,-1.170861,6.745455,6.3716297,-5.3340755,-0.46822822
193,1.9300000000000015,-2.3784313,-1.3551401,5.0416965,10.110431,-3.4605515,-1.4702
194,1.9400000000000015,-2.6409466,-1.2780014,4.3826947,11.056967,-2.9555187,-1.6449074
195,1.9500000000000015,-3.2450066,-0.88090503,3.1154866,10.590877,-3.6596937,-0.43264532
196,1.9600000000000015,-3.6666164,-0.53600687,2.2128122,10.590877,-3.6596937,-0.43264532
197,1.9700000000000015,-3.9714513,-0.36922884,2.0839021,9.046456,-4.453513,0.77442443
198,1.9800000000000015,-4.206099,-0.32148215,2.371419,7.8650427,-5.14318,2.3883305
199,1.9900000000000015,-4.050236,-1.2025092,2.4130676,7.1898837,-5.3265924,4.9405255
200,2.0000000000000013,-3.880958,-1.8107765,2.5216107,6.9159107,-5.1940346,5.7370934
201,2.010000000000001,-3.805405,-2.236716,2.6747901,6.9159107,-5.1940346,5.7370934
202,2.020000000000001,-3.658994,-2.5681376,2.854313,7.3080864,-4.817589,6.031531
203,2.0300000000000007,-3.728388,-2.7314398,2.9715757,7.804567,-4.532773,5.8071904
204,2.0400000000000005,-3.98072,-2.8525445,3.0787163,8.566316,-4.0924916,5.679367
205,2.0500000000000003,-4.2351255,-2.953465,3.085729,9.379225,-3.7158933,5.8969874
206,2.06,-4.2351255,-2.953465,3.085729,10.125855,-3.2992833,6.293897
207,2.07,-4.2514677,-2.9380982,2.312452,10.125855,-3.2992833,6.293897
208,2.0799999999999996,-4.2757373,-2.854313,2.0543883,10.297203,-1.8639026,7.157661
209,2.0899999999999994,-4.495872,-2.563564,1.6611944,9.606772,-1.55847,7.7332487
210,2.099999999999999,-4.565937,-2.4083722,1.5552737,8.940318,-1.483639,8.269436
211,2.109999999999999,-4.508495,-2.327087,1.4125824,8.210793,-1.5731307,8.689711
212,2.1199999999999988,-4.3717794,-2.2697058,1.255805,7.011053,-2.0650299,8.789282
213,2.1299999999999986,-4.252992,-2.1674435,1.1617141,6.2766404,-2.4228442,8.552571
214,2.1399999999999983,-4.0474925,-2.0435338,1.2543415,5.749311,-2.4851525,8.297382
215,2.149999999999998,-4.0474925,-2.0435338,1.2543415,5.577047,-2.0520492,8.070751
216,2.159999999999998,-3.8788848,-2.0100563,1.1903133,5.6720366,-1.2814425,8.000808
217,2.1699999999999977,-3.678995,-1.9424914,1.0790873,5.7881007,-0.124769226,8.007833
218,2.1799999999999975,-3.395869,-1.9312103,0.99243593,5.7485476,0.52687126,8.0647955
219,2.1899999999999973,-3.0882292,-2.2667177,0.6478427,5.6764655,0.7264715,7.9705696
220,2.199999999999997,-3.0882292,-2.2667177,0.6478427,5.62668,0.62949663,7.80304
221,2.209999999999997,-2.532038,-2.897913,-0.4167926,5.62668,0.62949663,7.80304
222,2.2199999999999966,-2.2536073,-3.0545075,-0.9768863,4.9121203,1.1905763,7.3522215
223,2.2299999999999964,-1.7713838,-3.1540253,-1.6262534,3.538437,1.9685133,7.6914043
224,2.239999999999996,-1.0675623,-3.4934354,-2.2601929,2.1386392,1.9566014,8.063116
225,2.249999999999996,-0.2978832,-3.881385,-2.6775343,0.441961,1.5311338,8.1910925
226,2.259999999999996,0.49008957,-4.2186,-2.7975414,-1.6956092,1.0019717,7.859392
227,2.2699999999999956,1.3957522,-4.4806886,-2.5445387,-2.8742738,0.9944886,7.0603805
228,2.2799999999999954,2.093293,-4.556363,-2.4050183,-3.9099958,1.0818423,5.394704
229,2.289999999999995,2.3809316,-4.854552,-2.177749,-4.2030582,1.1867584,4.2827764
230,2.299999999999995,2.482401,-4.9629116,-2.1242092,-4.204738,1.2278391,3.2501085
231,2.3099999999999947,2.5271597,-4.9956574,-2.0917075,-4.114177,1.2125676,2.467743
232,2.3199999999999945,2.5337453,-5.028769,-1.651194,-3.9293907,1.176221,1.9039142
233,2.3299999999999943,2.547283,-5.004499,-1.5563103,-3.2049046,1.4042265,1.1183416
234,2.339999999999994,2.607896,-4.7558265,-1.0324383,-1.9905044,1.9851593,0.081397794
235,2.349999999999994,2.30922,-3.966024,-0.37611952,0.39019018,2.7620273,-2.8906143
236,2.3599999999999937,2.30922,-3.966024,-0.37611952,0.39019018,2.7620273,-2.8906143
237,2.3699999999999934,1.7185148,-3.553439,-0.23550156,1.32909,2.520888,-4.7688723
238,2.3799999999999932,-0.70510215,-2.6945474,-0.39173016,1.8231273,-0.10827587,-8.272184
239,2.389999999999993,-2.0142028,-2.274462,-0.46264893,1.3289373,-1.1491902,-8.482628
240,2.399999999999993,-2.0142028,-2.274462,-0.46264893,1.3289373,-1.1491902,-8.482628
241,2.4099999999999926,-3.0068219,-1.5570421,-0.3770952,0.27351493,-1.7359263,-7.821366
242,2.4199999999999924,-3.1146939,-1.229523,-0.012805625,-0.8979719,-0.8570439,-7.0054026
243,2.429999999999992,-3.0987785,-1.2530609,-0.08256579,-1.3987287,-0.14202617,-6.732651
244,2.439999999999992,-3.152562,-1.2977587,0.35800868,-1.4792101,-0.058337633,-6.6955414
245,2.4499999999999917,-2.9688318,-1.4071553,0.37727812,-2.3829854,-0.098807454,-6.2813745
246,2.4599999999999915,-2.9688318,-1.4071553,0.37727812,-2.8026497,-0.50411654,-6.262896
247,2.4699999999999913,-2.110672,-1.7191248,0.5397876,-3.4552066,-1.2205088,-6.6394944
248,2.479999999999991,-2.0657303,-1.8727312,0.5684478,-3.8666244,-1.7808249,-7.3897896
249,2.489999999999991,-2.502829,-2.072804,0.58113146,-4.212374,-2.0964894,-7.964461
250,2.4999999999999907,-2.704609,-2.0948174,0.48826018,-4.4985642,-1.9567541,-8.010887
251,2.5099999999999905,-2.7260737,-2.1367712,0.36916786,-4.7754393,-1.721571,-7.9084144
252,2.5199999999999902,-2.6912546,-2.274767,0.28251648,-5.665928,-0.956615,-7.670024
253,2.52999999999999,-2.6786318,-2.35654,0.2865411,-6.586044,-0.23945917,-7.5173078
254,2.53999999999999,-2.739733,-2.520452,0.35178882,-7.1701837,0.16462818,-7.4601917
255,2.5499999999999896,-2.8201644,-2.7816257,0.51112735,-8.139169,0.81397796,-7.450723
256,2.5599999999999894,-2.988467,-3.0623128,0.9934116,-8.810662,1.4259121,-7.5980945
257,2.569999999999989,-3.4692266,-3.1153038,1.3395904,-9.658237,2.982244,-7.973166
258,2.579999999999989,-3.4692266,-3.1153038,1.3395904,-9.658696,3.1520646,-7.9114685
259,2.5899999999999888,-4.475139,-2.8986447,1.9852378,-9.065851,4.3565383,-6.54985
260,2.5999999999999885,-4.489652,-2.693023,2.1443324,-9.065851,4.3565383,-6.54985
261,2.6099999999999883,-4.332448,-2.6885715,2.1672606,-8.194299,5.7441187,-4.733442
262,2.619999999999988,-4.2286005,-2.7720518,2.2141535,-8.106182,6.0478716,-4.4894013
263,2.629999999999988,-4.1755486,-2.8955958,2.3453808,-8.157342,6.087578,-4.595081
264,2.6399999999999877,-4.1148133,-2.9227314,2.5821629,-8.02906,5.8998895,-4.9054008
265,2.6499999999999875,-4.1492667,-2.8023586,2.9399886,-7.577936,5.829029,-5.283984
266,2.6599999999999873,-4.334582,-2.4292881,3.2215295,-6.5522933,5.9762473,-5.75038
267,2.669999999999987,-4.748143,-1.6949768,3.3458052,-5.392413,5.9357777,-5.8701096
268,2.679999999999987,-5.030964,-1.1584213,3.2803133,-4.6602907,5.5796432,-5.541006
269,2.6899999999999866,-5.362935,-0.26964986,2.654972,-4.5605674,4.8882966,-4.7241263
270,2.6999999999999864,-5.362935,-0.26964986,2.654972,-4.5605674,4.8882966,-4.7241263
271,2.709999999999986,-4.753509,-0.34733734,2.338978,-7.8198385,3.7614028,-1.8797851
272,2.719999999999986,-4.5517898,-0.5179571,3.289887,-9.015149,4.090659,-1.9362901
273,2.7299999999999858,-5.2083526,0.34849593,5.9933376,-8.830515,4.487874,-2.395508
274,2.7399999999999856,-6.2860985,0.8120596,6.408118,-6.7795353,5.3832498,-3.1986432
275,2.7499999999999853,-6.492879,0.9459089,6.439949,-3.7873645,6.137974,-3.2881348
276,2.759999999999985,-6.8104587,1.770591,6.3136,-1.9356792,6.0968933,-2.3715315
277,2.769999999999985,-6.8639374,3.0634103,5.3289084,-1.9749273,4.5616364,-0.09560041
278,2.7799999999999847,-6.3300033,3.0331647,5.372143,-3.9408443,2.8157833,1.3122913
279,2.7899999999999845,-5.7820444,2.8604717,5.616547,-5.718615,0.55970526,2.0124955
280,2.7999999999999843,-5.069747,2.2668395,6.0598655,-6.436076,-1.0821478,2.4320073
281,2.809999999999984,-4.4242215,1.8829147,6.5183682,-6.436076,-1.0821478,2.4320073
282,2.819999999999984,-4.4242215,1.8829147,6.5183682,-6.2572455,-2.096184,2.6891816
283,2.8299999999999836,-3.4375176,0.39380345,6.747955,1.0575604,-4.628679,2.1745276
284,2.8399999999999834,-3.7039967,0.08866371,6.2781715,3.2012393,-4.765665,1.939039
285,2.849999999999983,-4.062737,-0.21342708,5.324152,6.194174,-4.793307,1.9103284
286,2.859999999999983,-4.266712,-0.3422151,4.4835544,7.9824815,-4.87165,2.2583687
287,2.869999999999983,-4.320008,-0.39307174,3.7858305,8.492401,-4.977941,2.5421157
288,2.8799999999999826,-4.3020196,-0.32386038,3.0073705,8.56876,-5.411197,3.0288227
289,2.8899999999999824,-4.323545,-0.29270002,2.6003957,8.008138,-6.075666,3.4170275
290,2.899999999999982,-4.3573885,-0.33319017,2.051827,6.8148127,-7.1616316,3.8238637
291,2.909999999999982,-4.476359,-0.42831767,1.9601753,5.8329997,-8.21461,4.0544653
292,2.9199999999999817,-4.738996,-0.81303525,2.0860364,4.925254,-9.257358,4.3612723
293,2.9299999999999815,-4.738996,-0.81303525,2.0860364,5.8728585,-8.859531,5.182886
294,2.9399999999999813,-4.738996,-0.81303525,2.0860364,4.925254,-9.257358,4.3612723
295,2.949999999999981,-5.040172,-2.291475,2.7176588,7.3282447,-7.5226526,5.732054
296,2.959999999999981,-4.9651065,-3.0402384,2.528806,9.822255,-4.8803554,6.4464607
297,2.9699999999999807,-5.0165734,-3.161221,2.2817185,10.4629,-4.0274343,6.810384
298,2.9799999999999804,-5.0165734,-3.161221,2.2817185,10.4629,-4.0274343,6.810384
299,2.9899999999999802,-4.9246163,-3.1484764,1.990604,10.766347,-3.5204165,7.43423
300,2.99999999999998,-4.7898526,-3.049629,1.5633839,9.952064,-3.7490327,8.101601
301,3.00999999999998,-4.539838,-2.5981395,1.1485426,9.027214,-3.5091155,8.416501
302,3.0199999999999796,-4.4153185,-2.4808764,1.2984294,8.508284,-2.8993192,8.59182
303,3.0299999999999794,-4.3540344,-2.3551373,1.484172,8.323344,-1.7432567,8.74362
304,3.039999999999979,-4.2889085,-2.254278,1.4957579,8.312196,-0.6617198,8.805164
305,3.049999999999979,-4.20866,-2.1550038,1.3047713,8.050135,0.36667186,8.70147
306,3.0599999999999787,-4.1989036,-2.0690231,1.0553055,7.490277,0.70448035,8.473923
307,3.0699999999999785,-4.144205,-1.8947446,0.74278724,6.381404,0.5589417,8.090757
308,3.0799999999999783,-4.0913973,-1.788275,0.5588131,5.307808,0.20021108,7.8151045
309,3.089999999999978,-4.0820675,-1.7455896,0.47697908,4.2966733,-0.18493946,7.5814486
310,3.099999999999978,-4.148535,-1.7401015,0.3436786,3.4031303,-0.6910413,7.4837103
311,3.1099999999999777,-4.1904273,-2.031094,-0.028355313,2.5983152,-0.9618073,7.8296127
312,3.1199999999999775,-3.418919,-2.4342275,-0.026891813,2.1311562,-0.8969029,8.259509
313,3.1299999999999772,-2.734184,-2.719549,-0.19196242,1.6775887,0.20295998,9.364106
314,3.139999999999977,-2.5544174,-2.807298,-0.22367159,1.6775887,0.20295998,9.364106
315,3.149999999999977,-1.2267789,-3.1358538,-0.5147861,1.5512923,-0.45097128,7.7366085
316,3.1599999999999766,-1.0719528,-3.3422074,-0.86742866,1.560608,-0.8006916,7.252345
317,3.1699999999999764,-0.6343663,-3.6116743,-1.6813177,1.2292136,-1.6041322,6.1097217
318,3.179999999999976,-0.08463909,-3.667592,-2.2336059,0.5224425,-1.5337299,5.603467
319,3.189999999999976,0.3000175,-3.8695548,-2.4183118,-0.35643986,-1.255328,5.3360605
320,3.1999999999999758,0.61040145,-4.1905494,-2.5091708,-1.3946054,-1.1974486,5.163033
321,3.2099999999999755,0.61040145,-4.1905494,-2.5091708,-1.3946054,-1.1974486,5.163033
322,3.2199999999999753,0.7657154,-4.4969697,-2.6032617,-1.9046779,-1.2005029,5.227021
323,3.229999999999975,1.5785677,-5.0308423,-2.5641742,-2.5761714,-0.6041457,5.3194146
324,3.239999999999975,2.7843087,-5.834182,-2.8093104,-3.49644,0.53221637,3.5008688
325,3.2499999999999747,3.3492808,-5.6991134,-2.496304,-3.7895026,0.5670357,2.0357084
326,3.2599999999999745,3.3962955,-5.614901,-2.3205013,-3.8079813,0.59681535,1.599856
327,3.2699999999999743,3.0281644,-5.1811557,-1.9284663,-3.4855971,1.1334605,-2.258827
328,3.279999999999974,3.0281644,-5.1811557,-1.9284663,-3.4855971,1.1334605,-2.258827
329,3.289999999999974,3.0281644,-5.1811557,-1.9284663,-3.4855971,1.1334605,-2.258827
330,3.2999999999999736,3.0281644,-5.1811557,-1.9284663,-3.4855971,1.1334605,-2.258827
331,3.3099999999999734,3.0281644,-5.1811557,-1.9284663,-3.4855971,1.1334605,-2.258827
332,3.319999999999973,2.2647054,-4.4891033,-1.5323455,-3.0088167,1.4220943,-4.530024
333,3.329999999999973,2.2647054,-4.4891033,-1.5323455,-3.0088167,1.4220943,-4.530024
334,3.3399999999999728,2.2647054,-4.4891033,-1.5323455,-3.0088167,1.4220943,-4.530024
335,3.3499999999999726,2.2647054,-4.4891033,-1.5323455,-3.0088167,1.4220943,-4.530024
336,3.3599999999999723,2.2647054,-4.4891033,-1.5323455,-3.0088167,1.4220943,-4.530024
337,3.369999999999972,2.2647054,-4.4891033,-1.5323455,-3.0088167,1.4220943,-4.530024
338,3.379999999999972,2.2647054,-4.4891033,-1.5323455,-3.0088167,1.4220943,-4.530024
339,3.3899999999999717,2.2647054,-4.4891033,-1.5323455,-3.0088167,1.4220943,-4.530024
340,3.3999999999999715,2.2647054,-4.4891033,-1.5323455,-3.0088167,1.4220943,-4.530024
341,3.4099999999999713,2.2647054,-4.4891033,-1.5323455,-3.0088167,1.4220943,-4.530024
342,3.419999999999971,2.2647054,-4.4891033,-1.5323455,-3.0088167,1.4220943,-4.530024
343,3.429999999999971,2.2647054,-4.4891033,-1.5323455,-3.0088167,1.4220943,-4.530024
344,3.4399999999999706,2.2647054,-4.4891033,-1.5323455,-3.0088167,1.4220943,-4.530024
345,3.4499999999999704,2.2647054,-4.4891033,-1.5323455,-3.0088167,1.4220943,-4.530024
346,3.45999999999997,2.2647054,-4.4891033,-1.5323455,-3.0088167,1.4220943,-4.530024
347,3.46999999999997,2.2647054,-4.4891033,-1.5323455,-3.0088167,1.4220943,-4.530024
348,3.47999999999997,2.2647054,-4.4891033,-1.5323455,-3.0088167,1.4220943,-4.530024
349,3.4899999999999696,2.2647054,-4.4891033,-1.5323455,-3.0088167,1.4220943,-4.530024
350,3.4999999999999694,2.2647054,-4.4891033,-1.5323455,-3.0088167,1.4220943,-4.530024
351,3.509999999999969,2.2647054,-4.4891033,-1.5323455,-3.0088167,1.4220943,-4.530024
352,3.519999999999969,2.2647054,-4.4891033,-1.5323455,-3.0088167,1.4220943,-4.530024
353,3.5299999999999687,2.2647054,-4.4891033,-1.5323455,-3.0088167,1.4220943,-4.530024
354,3.5399999999999685,2.2647054,-4.4891033,-1.5323455,-3.0088167,1.4220943,-4.530024
355,3.5499999999999683,2.2647054,-4.4891033,-1.5323455,-3.0088167,1.4220943,-4.530024
356,3.559999999999968,2.2647054,-4.4891033,-1.5323455,-3.0088167,1.4220943,-4.530024
357,3.569999999999968,2.2647054,-4.4891033,-1.5323455,-3.0088167,1.4220943,-4.530024
358,3.5799999999999677,2.2647054,-4.4891033,-1.5323455,-3.0088167,1.4220943,-4.530024
359,3.5899999999999674,2.2647054,-4.4891033,-1.5323455,-3.0088167,1.4220943,-4.530024
360,3.5999999999999672,2.2647054,-4.4891033,-1.5323455,-3.0088167,1.4220943,-4.530024
361,3.609999999999967,2.2647054,-4.4891033,-1.5323455,-3.0088167,1.4220943,-4.530024
362,3.619999999999967,2.2647054,-4.4891033,-1.5323455,-3.0088167,1.4220943,-4.530024
363,3.6299999999999666,2.2647054,-4.4891033,-1.5323455,-3.0088167,1.4220943,-4.530024
364,3.6399999999999664,2.2647054,-4.4891033,-1.5323455,-3.0088167,1.4220943,-4.530024
365,3.649999999999966,2.2647054,-4.4891033,-1.5323455,-3.0088167,1.4220943,-4.530024
366,3.659999999999966,2.2647054,-4.4891033,-1.5323455,-3.0088167,1.4220943,-4.530024
367,3.6699999999999657,2.2647054,-4.4891033,-1.5323455,-3.0088167,1.4220943,-4.530024
368,3.6799999999999655,2.2647054,-4.4891033,-1.5323455,-3.0088167,1.4220943,-4.530024
369,3.6899999999999653,2.2647054,-4.4891033,-1.5323455,-3.0088167,1.4220943,-4.530024
370,3.699999999999965,2.2647054,-4.4891033,-1.5323455,-3.0088167,1.4220943,-4.530024
371,3.709999999999965,2.2647054,-4.4891033,-1.5323455,-3.0088167,1.4220943,-4.530024
372,3.7199999999999647,2.2647054,-4.4891033,-1.5323455,-3.0088167,1.4220943,-4.530024
373,3.7299999999999645,2.2647054,-4.4891033,-1.5323455,-3.0088167,1.4220943,-4.530024
374,3.7399999999999642,2.2647054,-4.4891033,-1.5323455,-3.0088167,1.4220943,-4.530024
375,3.749999999999964,2.2647054,-4.4891033,-1.5323455,-3.0088167,1.4220943,-4.530024
376,3.759999999999964,2.2647054,-4.4891033,-1.5323455,-3.0088167,1.4220943,-4.530024
377,3.7699999999999636,2.2647054,-4.4891033,-1.5323455,-3.0088167,1.4220943,-4.530024
378,3.7799999999999634,2.2647054,-4.4891033,-1.5323455,-3.0088167,1.4220943,-4.530024
379,3.789999999999963,2.2647054,-4.4891033,-1.5323455,-3.0088167,1.4220943,-4.530024
380,3.799999999999963,2.2647054,-4.4891033,-1.5323455,-3.0088167,1.4220943,-4.530024
381,3.8099999999999627,2.2647054,-4.4891033,-1.5323455,-3.0088167,1.4220943,-4.530024
382,3.8199999999999625,2.2647054,-4.4891033,-1.5323455,-3.0088167,1.4220943,-4.530024
383,3.8299999999999623,2.2647054,-4.4891033,-1.5323455,-3.0088167,1.4220943,-4.530024
384,3.839999999999962,2.2647054,-4.4891033,-1.5323455,-3.0088167,1.4220943,-4.530024
385,3.849999999999962,2.2647054,-4.4891033,-1.5323455,-3.0088167,1.4220943,-4.530024
386,3.8599999999999617,2.2647054,-4.4891033,-1.5323455,-3.0088167,1.4220943,-4.530024
387,3.8699999999999615,2.2647054,-4.4891033,-1.5323455,-3.0088167,1.4220943,-4.530024
388,3.8799999999999613,2.2647054,-4.4891033,-1.5323455,-3.0088167,1.4220943,-4.530024
389,3.889999999999961,2.2647054,-4.4891033,-1.5323455,-3.0088167,1.4220943,-4.530024
390,3.899999999999961,2.2647054,-4.4891033,-1.5323455,-3.0088167,1.4220943,-4.530024
391,3.9099999999999606,2.2647054,-4.4891033,-1.5323455,-3.0088167,1.4220943,-4.530024
392,3.9199999999999604,2.2647054,-4.4891033,-1.5323455,-3.0088167,1.4220943,-4.530024
393,3.92999999999996,2.2647054,-4.4891033,-1.5323455,-3.0088167,1.4220943,-4.530024
394,3.93999999999996,2.2647054,-4.4891033,-1.5323455,-3.0088167,1.4220943,-4.530024
395,3.9499999999999598,2.2647054,-4.4891033,-1.5323455,-3.0088167,1.4220943,-4.530024
396,3.9599999999999596,2.2647054,-4.4891033,-1.5323455,-3.0088167,1.4220943,-4.530024
397,3.9699999999999593,2.2647054,-4.4891033,-1.5323455,-3.0088167,1.4220943,-4.530024
398,3.979999999999959,2.2647054,-4.4891033,-1.5323455,-3.0088167,1.4220943,-4.530024
399,3.989999999999959,2.2647054,-4.4891033,-1.5323455,-3.0088167,1.4220943,-4.530024
400,3.9999999999999587,2.2647054,-4.4891033,-1.5323455,-3.0088167,1.4220943,-4.530024
401,4.009999999999959,2.2647054,-4.4891033,-1.5323455,-3.0088167,1.4220943,-4.530024
402,4.019999999999959,2.2647054,-4.4891033,-1.5323455,-3.0088167,1.4220943,-4.530024
403,4.0299999999999585,2.2647054,-4.4891033,-1.5323455,-3.0088167,1.4220943,-4.530024
404,4.039999999999958,2.2647054,-4.4891033,-1.5323455,-3.0088167,1.4220943,-4.530024
405,4.049999999999958,2.2647054,-4.4891033,-1.5323455,-3.0088167,1.4220943,-4.530024
406,4.059999999999958,2.2647054,-4.4891033,-1.5323455,-3.0088167,1.4220943,-4.530024
407,4.069999999999958,2.2647054,-4.4891033,-1.5323455,-3.0088167,1.4220943,-4.530024
408,4.079999999999957,2.2647054,-4.4891033,-1.5323455,-3.0088167,1.4220943,-4.530024
409,4.089999999999957,2.2647054,-4.4891033,-1.5323455,-3.0088167,1.4220943,-4.530024
410,4.099999999999957,2.2647054,-4.4891033,-1.5323455,-3.0088167,1.4220943,-4.530024
411,4.109999999999957,2.2647054,-4.4891033,-1.5323455,-3.0088167,1.4220943,-4.530024
412,4.119999999999957,2.2647054,-4.4891033,-1.5323455,-3.0088167,1.4220943,-4.530024
413,4.129999999999956,2.2647054,-4.4891033,-1.5323455,-3.0088167,1.4220943,-4.530024
414,4.139999999999956,2.2647054,-4.4891033,-1.5323455,-3.0088167,1.4220943,-4.530024
415,4.149999999999956,2.2647054,-4.4891033,-1.5323455,-3.0088167,1.4220943,-4.530024
416,4.159999999999956,2.2647054,-4.4891033,-1.5323455,-3.0088167,1.4220943,-4.530024
417,4.1699999999999555,2.2647054,-4.4891033,-1.5323455,-3.0088167,1.4220943,-4.530024
418,4.179999999999955,2.2647054,-4.4891033,-1.5323455,-3.0088167,1.4220943,-4.530024
419,4.189999999999955,2.2647054,-4.4891033,-1.5323455,-3.0088167,1.4220943,-4.530024
420,4.199999999999955,2.2647054,-4.4891033,-1.5323455,-3.0088167,1.4220943,-4.530024
421,4.209999999999955,2.2647054,-4.4891033,-1.5323455,-3.0088167,1.4220943,-4.530024
422,4.2199999999999545,2.2647054,-4.4891033,-1.5323455,-3.0088167,1.4220943,-4.530024
423,4.229999999999954,2.2647054,-4.4891033,-1.5323455,-3.0088167,1.4220943,-4.530024
424,4.239999999999954,2.2647054,-4.4891033,-1.5323455,-3.0088167,1.4220943,-4.530024
425,4.249999999999954,2.2647054,-4.4891033,-1.5323455,-3.0088167,1.4220943,-4.530024
426,4.259999999999954,2.2647054,-4.4891033,-1.5323455,-3.0088167,1.4220943,-4.530024
427,4.269999999999953,2.2647054,-4.4891033,-1.5323455,-3.0088167,1.4220943,-4.530024
428,4.279999999999953,2.2647054,-4.4891033,-1.5323455,-3.0088167,1.4220943,-4.530024
429,4.289999999999953,2.2647054,-4.4891033,-1.5323455,-3.0088167,1.4220943,-4.530024
430,4.299999999999953,2.2647054,-4.4891033,-1.5323455,-3.0088167,1.4220943,-4.530024
431,4.3099999999999525,2.2647054,-4.4891033,-1.5323455,-3.0088167,1.4220943,-4.530024
432,4.319999999999952,2.2647054,-4.4891033,-1.5323455,-3.0088167,1.4220943,-4.530024
433,4.329999999999952,2.2647054,-4.4891033,-1.5323455,-3.0088167,1.4220943,-4.530024
434,4.339999999999952,2.2647054,-4.4891033,-1.5323455,-3.0088167,1.4220943,-4.530024
435,4.349999999999952,-1.2954415,-2.2761695,-0.5431415,-2.4877486,1.7654005,-7.96217
436,4.3599999999999515,-1.2954415,-2.2761695,-0.5431415,-2.4877486,1.7654005,-7.96217
437,4.369999999999951,-1.2954415,-2.2761695,-0.5431415,-2.4877486,1.7654005,-7.96217
438,4.379999999999951,-1.2954415,-2.2761695,-0.5431415,-2.4877486,1.7654005,-7.96217
439,4.389999999999951,-1.2954415,-2.2761695,-0.5431415,-2.4877486,1.7654005,-7.96217
440,4.399999999999951,-1.2954415,-2.2761695,-0.5431415,-2.4877486,1.7654005,-7.96217
441,4.40999999999995,-1.2954415,-2.2761695,-0.5431415,-2.4877486,1.7654005,-7.96217
442,4.41999999999995,-1.2954415,-2.2761695,-0.5431415,-2.4877486,1.7654005,-7.96217
443,4.42999999999995,-1.2954415,-2.2761695,-0.5431415,-2.4877486,1.7654005,-7.96217
444,4.43999999999995,-1.2954415,-2.2761695,-0.5431415,-2.4877486,1.7654005,-7.96217
445,4.4499999999999496,-1.2954415,-2.2761695,-0.5431415,-2.4877486,1.7654005,-7.96217
446,4.459999999999949,-1.2954415,-2.2761695,-0.5431415,-2.4877486,1.7654005,-7.96217
447,4.469999999999949,-1.2954415,-2.2761695,-0.5431415,-2.4877486,1.7654005,-7.96217
448,4.479999999999949,-1.2954415,-2.2761695,-0.5431415,-3.4162638,7.013802,-3.5645514
449,4.489999999999949,-4.641856,-0.16086306,3.1160355,-3.397938,6.5649686,-3.4023666
450,4.4999999999999485,-4.641856,-0.16086306,3.1160355,-3.397938,6.5649686,-3.4023666
451,4.509999999999948,-4.641856,-0.16086306,3.1160355,-3.397938,6.5649686,-3.4023666
452,4.519999999999948,-4.641856,-0.16086306,3.1160355,-3.397938,6.5649686,-3.4023666
453,4.529999999999948,-4.641856,-0.16086306,3.1160355,-3.397938,6.5649686,-3.4023666
454,4.539999999999948,-4.641856,-0.16086306,3.1160355,-3.397938,6.5649686,-3.4023666
455,4.549999999999947,-4.641856,-0.16086306,3.1160355,-3.397938,6.5649686,-3.4023666
456,4.559999999999947,-4.641856,-0.16086306,3.1160355,-3.397938,6.5649686,-3.4023666
457,4.569999999999947,-4.641856,-0.16086306,3.1160355,-3.397938,6.5649686,-3.4023666
458,4.579999999999947,-4.641856,-0.16086306,3.1160355,-3.397938,6.5649686,-3.4023666
459,4.589999999999947,-4.641856,-0.16086306,3.1160355,-3.397938,6.5649686,-3.4023666
460,4.599999999999946,-4.641856,-0.16086306,3.1160355,-3.397938,6.5649686,-3.4023666
461,4.609999999999946,-4.641856,-0.16086306,3.1160355,-3.397938,6.5649686,-3.4023666
462,4.619999999999946,-4.641856,-0.16086306,3.1160355,-3.397938,6.5649686,-3.4023666
463,4.629999999999946,-3.3879418,-0.9387743,-0.30568856,-6.237087,0.38728857,-7.6767435
464,4.6399999999999455,-2.9169385,-2.3938591,1.3971547,-6.237087,0.38728857,-7.6767435
465,4.649999999999945,-3.6458833,-2.4971578,1.4316078,-8.470105,3.6787832,-4.514905
466,4.659999999999945,-3.9801714,-2.3705041,1.2989782,-8.010123,6.678437,-2.075262
467,4.669999999999945,-4.25537,-2.075243,2.686803,-6.9898257,7.0829825,-1.9529362
468,4.679999999999945,-6.0584636,-0.19812131,3.7966847,-5.064531,8.650616,-1.6328428
469,4.689999999999944,-3.9847448,0.54917836,9.767643,-4.7003026,1.324814,3.242931
470,4.699999999999944,-2.9432814,-0.8631601,6.623984,6.7016497,-6.997003,-0.4642576
471,4.709999999999944,-3.7422915,-1.018352,4.9430323,8.567385,-7.3958983,-0.80680025
472,4.719999999999944,-3.8639448,-1.1718976,3.6752145,10.0203285,-7.297396,-0.7270824
473,4.729999999999944,-3.5641716,-1.2024482,2.8501663,10.5869055,-6.8322225,-0.61162883
474,4.739999999999943,-3.374892,-1.094637,1.9272466,10.357678,-6.135378,-0.4605924
475,4.749999999999943,-3.5263643,-0.7442508,1.3128206,9.448405,-5.5984273,-0.05390886
476,4.759999999999943,-3.7200344,-0.25074634,1.027499,7.488597,-5.07797,1.1195632
477,4.769999999999943,-3.7608294,0.08829784,1.209095,5.9504385,-4.7624583,2.3000603
478,4.7799999999999425,-3.8633351,0.14848427,1.7774818,4.54331,-4.6250134,3.7183368
479,4.789999999999942,-3.9752321,0.0028050416,1.9964579,4.0364447,-4.762611,4.4606905
480,4.799999999999942,-4.120972,-0.6746735,2.5510635,3.591735,-5.394398,5.718157
481,4.809999999999942,-4.130607,-1.1731782,2.8909004,4.0621014,-6.2780147,6.2373924
482,4.819999999999942,-3.928278,-1.7906532,2.956087,5.86003,-7.7184353,5.892559
483,4.8299999999999415,-3.8711407,-2.1755538,2.8809607,5.86003,-7.7184353,5.892559
484,4.839999999999941,-3.8711407,-2.1755538,2.8809607,8.639925,-6.639189,5.0248246
485,4.849999999999941,-4.387695,-2.4542286,2.2442772,8.639925,-6.639189,5.0248246
486,4.859999999999941,-4.4704437,-2.3977008,1.803154,10.167394,-4.3667703,5.6367593
487,4.869999999999941,-4.4317217,-2.2383013,1.4385595,10.122496,-3.5216382,6.1198006
488,4.87999999999994,-4.4437957,-2.0941465,1.1369566,9.415877,-3.054021,6.731277
489,4.88999999999994,-4.5241055,-1.9022452,0.81364506,8.479878,-3.068987,7.1769032
490,4.89999999999994,-4.7194824,-1.7179662,0.5964372,7.0064716,-3.3922875,7.7769256
491,4.90999999999994,-4.752899,-1.5938735,0.59655917,5.8099394,-3.7811031,8.228508
492,4.9199999999999395,-4.6822853,-1.4765496,0.7356527,4.62425,-4.0822597,8.59182
493,4.929999999999939,-4.5734987,-1.4361813,0.799132,3.9880338,-4.2216897,8.656877
494,4.939999999999939,-4.510568,-1.3980085,1.0210352,3.5392005,-4.2526913,8.570897
495,4.949999999999939,-4.470566,-1.4148387,1.3212966,3.6037996,-3.9594758,8.450252
496,4.959999999999939,-4.408184,-1.5697258,1.5153323,4.1383066,-3.453374,8.341365
497,4.9699999999999385,-4.293909,-1.6837567,1.4608779,4.1383066,-3.453374,8.341365
498,4.979999999999938,-3.7992463,-1.847364,1.0214621,5.1176763,-2.994767,8.068003
499,4.989999999999938,-3.5641103,-1.9421254,0.8149866,5.1488304,-2.919325,7.870999
500,4.999999999999938,-3.4792883,-2.0879877,0.6027181,5.213735,-2.7617218,7.670024
501,5.009999999999938,-3.3862343,-2.3128178,0.3949011,5.3882895,-2.4312437,7.5449495
502,5.019999999999937,-3.2158582,-2.5050852,0.13976426,5.846133,-1.6641496,7.645131
503,5.029999999999937,-2.4497771,-2.997248,-0.3918521,6.127589,-0.7049385,7.894975
504,5.039999999999937,-1.8490714,-3.2562876,-1.001522,6.148817,-0.1591304,7.9636974
505,5.049999999999937,-1.8490714,-3.2562876,-1.001522,6.148817,-0.1591304,7.9636974
506,5.0599999999999365,-0.44917256,-3.8770556,-2.856996,3.7340665,-0.5120578,7.4398804
507,5.069999999999936,0.16610725,-4.2668343,-3.3796487,1.3162619,-1.0506883,6.8358874
508,5.079999999999936,0.69857734,-4.660394,-3.410382,1.3162619,-1.0506883,6.8358874
509,5.089999999999936,0.9989607,-4.9418125,-3.0091999,-2.4051292,-1.777007,5.480683
510,5.099999999999936,1.123968,-5.2498183,-2.6484473,-2.8464794,-2.1178699,4.725806
511,5.1099999999999355,1.2600125,-5.528859,-2.684059,-2.521499,-2.5783095,4.0201044
512,5.119999999999935,1.627351,-5.7634463,-3.1185358,-1.9550742,-2.5807528,3.3104315
513,5.129999999999935,1.9915797,-5.819242,-3.4436157,-1.6959146,-1.8005253,2.3877196
514,5.139999999999935,2.3174522,-5.5952044,-3.50307,-1.6455183,-0.13698652,0.6207918
515,5.149999999999935,2.2586074,-5.2151213,-3.2539093,-1.7293595,1.2927436,-1.1436925
516,5.159999999999934,1.7370527,-4.603988,-2.728208,-1.9457586,2.6974282,-3.4654386
517,5.169999999999934,1.0838437,-4.0606027,-2.2560463,-2.2301164,3.397327,-5.158299
518,5.179999999999934,0.13445906,-3.3548908,-1.6514378,-2.7629435,3.936721,-6.9047627
519,5.189999999999934,-0.7251033,-2.7532094,-0.9837159,-3.4012976,4.165032,-8.217512
520,5.199999999999934,-2.0460951,-2.3412342,-0.39734024,-3.7329974,4.0986004,-8.802874
521,5.209999999999933,-3.1649408,-1.9424304,0.12604393,-3.7409387,3.5909712,-8.667415
522,5.219999999999933,-3.555756,-0.9468845,0.6561358,-3.6384661,2.6038132,-7.3122096
523,5.229999999999933,-3.555756,-0.9468845,0.6561358,-3.6384661,2.6038132,-7.3122096
524,5.239999999999933,-3.2936678,-0.8178526,0.7415067,-3.6438112,2.2088888,-6.942331
525,5.2499999999999325,-3.1417077,-0.9097482,0.80651045,-3.6366336,1.5070046,-7.034877
526,5.259999999999932,-2.8964496,-1.0454268,0.88029534,-3.5950947,1.3973542,-7.076874
527,5.269999999999932,-2.8057125,-1.161958,0.8465737,-3.4927747,1.363604,-7.1605625
528,5.279999999999932,-2.8057125,-1.161958,0.8465737,-3.4185545,1.6009251,-7.167129
529,5.289999999999932,-2.6236286,-1.2811112,0.8879177,-3.290273,1.8238909,-7.1966033
530,5.299999999999931,-2.5297208,-1.3626405,0.80309564,-3.16474,2.0318906,-7.3398514
531,5.309999999999931,-2.7253418,-1.4408158,0.6705269,-3.2710307,2.208125,-7.4268994
532,5.319999999999931,-2.7253418,-1.4408158,0.6705269,-3.2710307,2.208125,-7.4268994
533,5.329999999999931,-2.939013,-1.4582559,0.6515624,-3.2710307,2.208125,-7.4268994
534,5.339999999999931,-2.8346775,-1.5202106,0.5880831,-4.655404,2.918256,-6.6640816
535,5.34999999999993,-2.8010173,-1.5866779,0.61942637,-5.581934,3.198185,-6.539007
536,5.35999999999993,-2.807115,-1.7485776,0.74608016,-6.4299674,3.424816,-6.541603
537,5.36999999999993,-2.8438854,-1.914441,0.9134679,-7.3668823,3.6189184,-6.6339965
538,5.37999999999993,-2.9830399,-2.077987,1.2351941,-8.409476,3.717115,-6.732651
539,5.3899999999999295,-3.187076,-2.2385454,1.5625912,-9.047983,3.700927,-6.654766
540,5.399999999999929,-3.1489031,-2.4014816,2.0386555,-9.389152,3.887241,-6.3810983
541,5.409999999999929,-2.9921868,-2.505817,2.3231843,-9.235518,4.011705,-6.2070017
542,5.419999999999929,-2.6271045,-2.5239887,2.634544,-8.571966,4.122424,-6.075971
543,5.429999999999929,-2.6271045,-2.5239887,2.634544,-7.7607374,4.333936,-5.999613
544,5.4399999999999284,-2.5000849,-2.403189,2.6825955,-6.363536,4.5967607,-5.851173
545,5.449999999999928,-2.3558693,-2.2500093,2.5953953,-5.194493,4.6141706,-5.7312903
546,5.459999999999928,-2.1465886,-2.134027,1.9138312,-3.99063,4.330118,-5.7176986
547,5.469999999999928,-2.1465886,-2.134027,1.9138312,-3.4359643,3.8681514,-5.8982096
548,5.479999999999928,-2.751197,-1.817911,1.1992773,-3.5266778,3.3718235,-6.0924644
549,5.489999999999927,-3.2243955,-1.5621033,1.1830568,-4.879133,2.919783,-6.326731
550,5.499999999999927,-4.2057943,-1.4403279,1.3778853,-5.871637,3.3180673,-5.956547
551,5.509999999999927,-4.8927855,-1.2672691,1.6412544,-6.638578,3.897931,-5.235879
552,5.519999999999927,-5.468124,-1.0681111,1.9332225,-7.6374955,4.4765735,-4.2438335
553,5.5299999999999265,-5.787106,-0.9543849,2.2853773,-8.654738,4.864167,-3.608381
554,5.539999999999926,-6.065415,-0.64851344,2.8933394,-9.995436,5.0057354,-2.8748846
555,5.549999999999926,-6.065415,-0.64851344,2.8933394,-9.995436,5.0057354,-2.8748846
556,5.559999999999926,-6.366713,0.08378538,5.477698,-10.795211,5.167767,-1.4381295
557,5.569999999999926,-6.424521,0.4510629,6.282013,-10.016205,5.6628737,-1.0328205
558,5.5799999999999255,-6.8241177,0.56728923,6.9466248,-9.047525,6.6798115,-0.8425359
559,5.589999999999925,-7.257436,0.8716362,7.69923,-8.197201,6.588029,-0.5590944
560,5.599999999999925,-7.5523915,1.5471025,8.835637,-7.0871058,5.552154,-0.07070765
561,5.609999999999925,-7.440739,1.6094232,9.493846,-5.5984273,3.833485,0.851088
562,5.619999999999925,-6.4673285,1.28477,10.029976,-2.707813,0.63499445,2.1499403
563,5.629999999999924,-4.375072,-0.24513626,8.00504,1.4054482,-2.5896106,2.8350255
564,5.639999999999924,-4.247138,-0.8084618,5.9962645,4.7470336,-4.0688205,2.7105618
565,5.649999999999924,-4.451967,-1.062745,4.62405,8.982468,-5.416237,2.069917
566,5.659999999999924,-4.451967,-1.062745,4.62405,8.982468,-5.416237,2.069917
567,5.6699999999999235,-4.3902564,-1.0840267,2.921329,8.948107,-5.909205,2.2944098
568,5.679999999999923,-4.3902564,-1.0840267,2.921329,8.948107,-5.909205,2.2944098
569,5.689999999999923,-3.9824276,-0.8951742,2.2281787,7.346571,-6.2520533,2.6111436
570,5.699999999999923,-3.9651093,-0.90230876,2.1031713,6.5420613,-6.6132274,2.8386908
571,5.709999999999923,-4.0167584,-1.0381703,2.0857923,6.5420613,-6.6132274,2.8386908
572,5.7199999999999225,-4.0863357,-1.2404993,2.1962867,5.4664803,-6.7631946,4.0743184
573,5.729999999999922,-4.070908,-1.5869828,2.4716687,5.757405,-6.3406286,4.658
574,5.739999999999922,-4.1165814,-1.8219355,2.5486245,6.5237355,-5.9052343,5.237253
575,5.749999999999922,-4.12396,-2.4098358,2.5099635,7.683463,-5.287802,5.924629
576,5.759999999999922,-4.174146,-2.828153,2.4161775,8.720407,-4.7580295,6.397439
577,5.769999999999921,-4.17317,-2.9902356,2.1657362,9.316916,-4.488943,6.679048
578,5.779999999999921,-4.2365274,-3.1156695,1.7948608,9.4114485,-4.532009,6.90125
579,5.789999999999921,-4.2659802,-3.0076146,1.6529013,9.4114485,-4.532009,6.90125
580,5.799999999999921,-4.411965,-2.8257136,1.5185642,9.4114485,-4.532009,6.90125
581,5.809999999999921,-4.411965,-2.8257136,1.5185642,9.4114485,-4.532009,6.90125
582,5.81999999999992,-4.797658,-2.5949075,1.4392914,7.948884,-4.8966956,8.208654
583,5.82999999999992,-4.6882005,-2.5361235,1.7724816,7.972555,-2.8273897,9.171683
584,5.83999999999992,-4.61344,-2.5213056,1.6946112,8.039445,-2.2395847,9.328676
585,5.84999999999992,-4.6527715,-2.364772,1.487099,7.8102174,-2.094504,9.3694515
586,5.8599999999999195,-4.719361,-2.1723218,1.1575675,7.2233286,-2.6155722,9.463371
587,5.869999999999919,-4.718385,-2.0446925,0.82949966,6.5167103,-3.1899383,9.533468
588,5.879999999999919,-4.6060615,-1.9532847,0.55466646,5.6752434,-3.5796704,9.628916
589,5.889999999999919,-4.2070136,-1.8640722,0.42112213,4.638147,-3.5117116,9.6477
590,5.899999999999919,-3.9411445,-1.770896,0.837366,4.130213,-2.652224,9.506437
591,5.909999999999918,-3.7999775,-1.794434,1.117809,4.3826528,-1.5925257,9.370214
592,5.919999999999918,-4.0018797,-1.940906,1.2681228,5.071556,-0.68371093,9.341504
593,5.929999999999918,-4.0503583,-2.1371367,1.2583661,6.008776,-0.44913867,9.640064
594,5.939999999999918,-3.6070395,-2.5307574,0.7730329,6.5558057,-0.76174897,9.719477
595,5.949999999999918,-3.175795,-2.8085785,0.26324704,6.6776733,-1.3141239,9.521862
596,5.959999999999917,-2.6421664,-3.0348113,-0.33239743,6.305809,-1.536937,9.078832
597,5.969999999999917,-1.9752982,-3.152501,-0.91340697,5.546046,-1.4022411,8.551044
598,5.979999999999917,-1.4066675,-3.1790879,-1.024328,4.397619,-1.0103711,7.718893
599,5.989999999999917,-1.174032,-3.166831,-0.9968264,3.9881864,-0.4034765,7.1938543
600,5.9999999999999165,-0.81529146,-3.2950094,-1.5155153,3.4370334,0.28313604,6.716616
601,6.009999999999916,-0.52082306,-3.29257,-1.7674812,2.5427265,0.7286095,6.35926
602,6.019999999999916,-0.3275801,-3.430871,-1.8105935,0.21594086,1.6087136,5.718157
603,6.029999999999916,0.81053513,-4.281713,-1.6883303,-1.0034989,0.91736686,4.8362203
604,6.039999999999916,1.3267237,-4.671736,-1.3533716,-1.3067935,0.61498857,3.908163
605,6.0499999999999154,1.3267237,-4.671736,-1.3533716,-1.3067935,0.61498857,3.908163
606,6.059999999999915,1.8200452,-5.189632,-1.3454443,0.008399397,1.2681563,1.048703
607,6.069999999999915,1.5335041,-5.1423125,-1.5321625,0.008399397,1.2681563,1.048703
608,6.079999999999915,1.1901304,-4.9393735,-1.4303883,-0.19349156,1.3883439,-0.8162687
609,6.089999999999915,1.1459205,-4.761558,-1.2083632,-0.5885687,1.3866642,-1.1233811
610,6.099999999999914,1.293673,-4.550692,-0.93999386,-0.7367035,1.4937183,-1.4795157
611,6.109999999999914,1.2872093,-4.2050014,-0.5905222,-0.8481864,1.8026633,-2.4932466
612,6.119999999999914,1.2872093,-4.2050014,-0.5905222,-1.0183123,1.7116444,-3.8701367
613,6.129999999999914,0.7051631,-3.535572,-0.29318783,-1.3529139,1.0606148,-5.055063
614,6.1399999999999135,0.23147692,-3.2181146,-0.100554645,-1.8193095,0.025350908,-6.481433
615,6.149999999999913,-0.14561825,-2.9787714,0.036953375,-2.0436497,-0.5758932,-7.5373135
616,6.159999999999913,-0.7941927,-2.7932727,0.0013415418,-2.2731824,-1.0746647,-8.667109
617,6.169999999999913,-1.3515422,-2.6565573,-0.055613004,-2.5437956,-1.259146,-9.284694
618,6.179999999999913,-1.91688,-2.47051,-0.22678153,-3.0674598,-1.3242031,-9.723295
619,6.1899999999999125,-2.2153122,-2.3844683,-0.31367683,-3.7394116,-1.1702651,-10.014372
620,6.199999999999912,-2.5315502,-2.2756815,-0.28898028,-4.7922378,-0.745561,-10.481531
621,6.209999999999912,-3.0634716,-2.1018908,0.061710916,-5.5691056,-0.27382034,-10.852938
622,6.219999999999912,-3.641371,-2.0874999,0.3325804,-7.080539,0.8167268,-11.455403
623,6.229999999999912,-3.8481514,-2.1647606,0.49033347,-7.560221,0.81504697,-11.323915
624,6.239999999999911,-4.2657976,-2.1814687,0.6422936,-7.929489,0.6789767,-11.067504
625,6.249999999999911,-4.885773,-2.0093856,0.7801065,-8.27753,0.63789606,-10.155635
626,6.259999999999911,-4.8024144,-1.8232162,0.9160901,-8.36412,1.0598512,-8.475756
627,6.269999999999911,-4.3090925,-1.8396804,1.068416,-8.315708,1.9704986,-7.0846624
628,6.2799999999999105,-4.3090925,-1.8396804,1.068416,-8.315708,1.9704986,-7.0846624
629,6.28999999999991,-4.3090925,-1.8396804,1.068416,-7.9733186,3.3105843,-6.226702
630,6.29999999999991,-3.2071993,-2.1506133,1.2289742,-7.748673,3.4863608,-6.3250513
631,6.30999999999991,-3.2071993,-2.1506133,1.2289742,-7.590459,3.4735324,-6.553973
632,6.31999999999991,-3.13439,-2.3799558,0.9990827,-7.5922914,3.3545666,-6.903388
633,6.3299999999999095,-3.5318522,-2.4071527,0.89066166,-7.8076215,3.2582026,-6.8224483
634,6.339999999999909,-4.1464615,-2.2164097,1.0644523,-8.111374,3.2285755,-5.762292
635,6.349999999999909,-4.1464615,-2.2164097,1.0644523,-8.047539,4.152051,-3.2308662
636,6.359999999999909,-3.278057,-2.2409844,1.3009906,-7.807316,4.9403725,-2.8252518
637,6.369999999999909,-3.041275,-2.2618394,1.4727689,-7.258148,5.8125353,-2.990491
638,6.379999999999908,-3.041275,-2.2618394,1.4727689,-6.7607512,6.2167754,-3.3096678
639,6.389999999999908,-3.02664,-2.2288496,1.4008744,-6.315583,6.2716007,-3.6728272
640,6.399999999999908,-3.3092175,-2.1918962,1.3186135,-6.1717243,5.987854,-3.8151588
641,6.409999999999908,-3.6872275,-2.133966,1.4028258,-6.158896,5.8041363,-3.4778085
642,6.419999999999908,-3.6632626,-2.0114589,1.5716162,-5.955936,5.8685822,-2.863889
643,6.429999999999907,-3.5936854,-1.9224292,1.6808907,-5.767026,6.274197,-2.6074784
644,6.439999999999907,-3.6639333,-1.7858359,1.8495592,-5.5649824,6.8542137,-2.510656
645,6.449999999999907,-3.7962582,-1.4799644,2.039875,-5.3797374,7.44492,-2.4984388
646,6.459999999999907,-3.9816346,-1.1551894,2.3020246,-5.3797374,7.44492,-2.4984388
647,6.4699999999999065,-3.9849274,-1.0761603,2.341966,-5.6466856,5.9496746,-2.2395847
648,6.479999999999906,-3.8597374,-1.0021926,2.5060608,-6.3343673,3.6247218,-1.6201674
649,6.489999999999906,-3.5170956,-1.2128147,3.176283,-6.165921,2.879466,-1.1682798
650,6.499999999999906,-3.2837892,-1.0531102,3.746804,-3.3298264,5.7242656,-2.012343
651,6.509999999999906,-3.5109975,-0.46234405,4.3390946,-3.3298264,5.7242656,-2.012343
652,6.519999999999905,-4.3789144,0.38294917,4.4047694,-1.1038336,8.409171,-2.6369526
653,6.529999999999905,-5.6714892,0.97828877,4.237808,-0.56046885,9.431454,-2.8225029
654,6.539999999999905,-7.1619425,1.562957,4.1718287,-1.7828102,7.9033747,-1.7168368
655,6.549999999999905,-7.4023223,1.9253561,4.403794,-6.512282,3.1858149,1.6835446
656,6.559999999999905,-6.442571,1.2671471,5.9404078,-6.512282,3.1858149,1.6835446
657,6.569999999999904,-4.6274652,0.48630884,8.75173,-4.1523566,0.49037206,1.3486377
658,6.579999999999904,-4.302141,0.36288702,8.705325,-1.2064588,-0.9447031,0.54244834
659,6.589999999999904,-4.5106897,0.25184396,7.772893,2.6665795,-2.806315,-0.31490102
660,6.599999999999904,-4.914616,-0.07219934,6.463426,5.402645,-4.1515927,-0.5526803
661,6.6099999999999035,-5.547214,-0.47563753,4.5644736,7.8300705,-5.5148916,-0.13408493
662,6.619999999999903,-5.850097,-0.70357764,3.3873317,8.186664,-5.838803,0.4578435
663,6.629999999999903,-5.4618435,-0.83571947,2.6453373,8.214152,-5.7685533,1.5343407
664,6.639999999999903,-4.9563866,-0.9350546,2.4595947,8.157952,-5.304143,2.1487186
665,6.649999999999903,-4.4558086,-1.0159739,2.2590342,8.222551,-4.5594983,2.6940684
666,6.659999999999902,-4.176829,-1.0721967,1.9779203,8.050593,-4.054618,3.1581733
667,6.669999999999902,-3.990172,-1.0573788,1.8255943,7.668039,-4.055382,3.4261904
668,6.679999999999902,-3.960536,-0.9942653,1.6984527,7.1379604,-4.2951465,3.6661077
669,6.689999999999902,-4.156767,-1.0018877,1.5352725,6.5064783,-4.8915033,4.1465535
670,6.699999999999902,-4.6380143,-1.5292965,1.5159422,5.6622624,-6.211278,5.039791
671,6.709999999999901,-4.6380143,-1.5292965,1.5159422,5.4451003,-7.0661836,5.587432
672,6.719999999999901,-4.7864985,-1.8369974,1.7360768,5.8916426,-7.485848,6.2050166
673,6.729999999999901,-4.853942,-2.289402,1.9753592,7.680409,-6.664234,6.970125
674,6.739999999999901,-4.744606,-2.9541967,1.91688,10.4233465,-4.3299656,7.8561854
675,6.7499999999999005,-4.744606,-2.9541967,1.91688,10.4233465,-4.3299656,7.8561854
676,6.7599999999999,-4.744606,-2.9541967,1.91688,10.4233465,-4.3299656,7.8561854
677,6.7699999999999,-4.833636,-2.994199,1.027621,10.985342,-2.3315198,9.662056
678,6.7799999999999,-4.9628506,-2.5978954,0.25251475,9.252776,-2.653904,10.370659
679,6.7899999999999,-4.9951086,-2.4128847,0.5461904,8.065712,-2.6606236,10.8048315
680,6.7999999999998995,-4.9951086,-2.4128847,0.5461904,8.065712,-2.6606236,10.8048315
681,6.809999999999899,-4.9014444,-2.335014,0.787363,7.325496,-2.1836905,11.269242
682,6.819999999999899,-4.276164,-2.169334,0.79553425,6.6914177,-1.1632402,11.527638
683,6.829999999999899,-4.0876775,-2.0499368,0.7394334,6.1419444,-0.86193085,11.261148
684,6.839999999999899,-4.0174904,-1.9718224,0.7941927,5.7274723,-0.7502952,10.968085
685,6.849999999999898,-3.8707747,-1.8952326,0.9926189,5.4487653,-0.590554,10.4629
686,6.859999999999898,-3.7944286,-1.7857139,1.0962834,5.457623,-0.2848159,10.007805
687,6.869999999999898,-3.9617555,-1.7398577,1.130127,5.441893,0.32711834,9.591806
688,6.879999999999898,-3.9424253,-1.6237532,0.97877663,5.1202726,0.6545421,9.510103
689,6.8899999999998975,-3.743328,-1.5245402,0.8465128,4.5588875,0.5314528,9.507049
690,6.899999999999897,-3.5255103,-1.504661,0.8377318,3.8724275,0.13637567,9.4762
691,6.909999999999897,-3.2050042,-1.7051605,0.9355424,3.4321463,-0.35476,9.3628845
692,6.919999999999897,-2.2459238,-2.1964695,1.0486587,4.112192,-0.21991149,8.557917
693,6.929999999999897,-2.2459238,-2.1964695,1.0486587,4.112192,-0.21991149,8.557917
694,6.9399999999998965,-1.4337422,-2.409043,0.82010883,5.9841886,1.3967434,6.8284044
695,6.949999999999896,-1.349225,-2.4091039,0.20208496,6.033974,1.8915442,5.425858
696,6.959999999999896,-1.8223624,-2.3478808,-0.14744763,5.6630263,1.4924965,4.6605964
697,6.969999999999896,-1.8223624,-2.3478808,-0.14744763,5.6630263,1.4924965,4.6605964
698,6.979999999999896,-1.9917016,-3.276533,-1.3969717,2.794403,-0.066737026,6.439894
699,6.989999999999895,-0.6144871,-4.1088376,-1.8660845,0.3220787,0.34697145,7.8086905
700,6.999999999999895,0.3609357,-5.0049872,-1.7283325,-1.7337883,1.4025466,8.17185
701,7.009999999999895,1.2819041,-6.04145,-0.5821071,-1.7337883,1.4025466,8.17185
702,7.019999999999895,1.8891346,-6.4415345,0.65930676,-2.5434902,3.9156463,5.944635
703,7.0299999999998946,2.3945909,-6.6505103,1.3818489,-0.78786343,4.64899,4.1163154
704,7.039999999999894,2.4107504,-6.5797133,1.2320231,0.72784597,4.4318275,2.0494528
705,7.049999999999894,2.054632,-6.2100573,0.64644015,1.2603678,2.7044532,-0.23380867
706,7.059999999999894,1.612838,-5.640207,0.17208321,0.30650163,0.5902485,-1.9010127
707,7.069999999999894,1.2378771,-4.929861,0.055795938,-1.2457069,-0.9265299,-3.246596
708,7.0799999999998935,1.0111566,-4.5619125,0.18592548,-2.0830505,-1.5690074,-3.9637518
709,7.089999999999893,0.6354029,-4.0346866,0.5596668,-2.8118126,-2.2759311,-5.122716
710,7.099999999999893,0.22428137,-3.5603294,0.7870581,-2.673757,-2.5870142,-6.321997
711,7.109999999999893,-0.19964579,-3.1978695,0.80468106,-1.7880026,-2.8364,-8.5174465
712,7.119999999999893,-1.478318,-2.3669674,0.37227783,-1.7298176,-3.1202996,-9.292635
713,7.129999999999892,-1.9989581,-2.017191,0.117140986,-2.277611,-3.616933,-10.047665
714,7.139999999999892,-1.9989581,-2.017191,0.117140986,-2.277611,-3.616933,-10.047665
715,7.149999999999892,-3.2390306,-1.2700131,-0.07744354,-4.326606,-4.0201044,-10.6449375
716,7.159999999999892,-3.614479,-1.164946,-0.030367626,-5.444642,-3.732692,-10.456181
717,7.169999999999892,-3.81443,-1.1426277,0.1671439,-6.851159,-3.0879238,-9.988257
718,7.179999999999891,-3.767171,-1.2287912,0.41380462,-7.808843,-2.4953845,-9.5844755
719,7.189999999999891,-3.6119182,-1.4816718,0.59296143,-8.797528,-2.158034,-9.366855
720,7.199999999999891,-3.3382435,-1.6819273,0.6882719,-9.592569,-1.8138117,-9.182527
721,7.209999999999891,-3.1567085,-2.002251,0.7593736,-10.174877,-1.622,-9.133199
722,7.2199999999998905,-3.0096877,-2.247997,0.88078314,-10.62203,-1.3220651,-9.095631
723,7.22999999999989,-3.0096877,-2.247997,0.88078314,-10.62203,-1.3220651,-9.095631
724,7.23999999999989,-3.0096877,-2.247997,0.88078314,-10.62203,-1.3220651,-9.095631
725,7.24999999999989,-3.0096877,-2.247997,0.88078314,-10.62203,-1.3220651,-9.095631
726,7.25999999999989,-4.293177,-2.4103847,1.3299557,-10.403188,1.2560917,-5.9374576
727,7.269999999999889,-3.708753,-2.3408072,1.5386873,-9.792628,2.8499918,-4.571257
728,7.279999999999889,-3.1153038,-2.2960486,1.7375405,-8.727585,4.4781003,-4.2824707
729,7.289999999999889,-2.9755394,-2.327087,1.8153498,-8.11901,4.9991684,-4.4936776
730,7.299999999999889,-2.880351,-2.3113544,1.6927818,-7.249596,5.393329,-4.968167
731,7.309999999999889,-2.7946143,-2.3023295,1.443072,-7.0360985,4.9419,-5.6720366
732,7.319999999999888,-3.0536537,-2.3487954,1.1457375,-7.5136423,4.6199737,-5.095074
733,7.329999999999888,-3.761439,-2.2146416,1.1681778,-7.5136423,4.6199737,-5.095074
734,7.339999999999888,-3.354586,-2.2739131,1.3683724,-8.611826,4.968625,-3.3577735
735,7.349999999999888,-3.0801797,-2.4257512,1.6590602,-8.713993,5.729458,-3.445891
736,7.3599999999998875,-3.2523239,-2.4775226,2.098964,-8.182235,6.5840583,-3.9377902
737,7.369999999999887,-3.4459937,-2.4160554,2.3272698,-7.243029,7.000821,-4.223522
738,7.379999999999887,-3.6377733,-2.2193367,2.3287945,-6.1338506,7.183317,-4.351957
739,7.389999999999887,-3.9410226,-2.0765846,1.9999337,-5.3038373,7.0884805,-4.352415
740,7.399999999999887,-4.3151298,-1.8114473,1.8179718,-5.168836,7.095811,-4.187634
741,7.4099999999998865,-4.690944,-1.5403947,1.8016295,-5.543602,7.443851,-4.0398045
742,7.419999999999886,-5.3383603,-1.2797698,2.1023178,-6.3945374,7.7370663,-3.6377025
743,7.429999999999886,-6.0726714,-1.0941492,2.7105849,-7.0771794,7.3737545,-2.9089403
744,7.439999999999886,-5.956994,-1.1408592,3.1182916,-7.8089957,6.4307313,-2.0092885
745,7.449999999999886,-5.134324,-1.0832338,3.8368092,-7.8089957,6.4307313,-2.0092885
746,7.459999999999885,-4.273359,-0.8216333,4.707165,-8.138252,4.2769732,-1.1265882
747,7.469999999999885,-4.046943,-0.48521125,5.369033,-6.9488974,4.784449,-1.3510813
748,7.479999999999885,-4.9566917,0.12519024,5.963031,-4.817894,6.474255,-1.8278615
749,7.489999999999885,-5.839853,0.65936774,6.1357236,-3.3970215,7.5432696,-1.5187637
750,7.4999999999998845,-6.3879337,0.81199855,6.0113873,-3.0440943,7.8877974,-0.33001995
751,7.509999999999884,-6.1051126,0.6077794,6.221887,-5.106681,4.0555344,0.43493605
752,7.519999999999884,-5.1220675,0.34404445,7.333355,-5.106681,4.0555344,0.43493605
753,7.529999999999884,-3.840407,0.27763817,9.929787,-0.89369583,-2.503784,-1.6830865
754,7.539999999999884,-3.840407,0.27763817,9.929787,-0.89369583,-2.503784,-1.6830865
755,7.5499999999998835,-5.190669,-0.50338304,7.7806983,8.270963,-4.7149634,-2.435825
756,7.559999999999883,-5.9098573,-0.88011235,5.9994354,11.17471,-4.7403145,-1.4680619
757,7.569999999999883,-5.704967,-1.1918379,4.039992,12.658808,-4.4351873,0.30298916
758,7.579999999999883,-4.9444957,-1.457463,3.0538368,12.530984,-4.2502475,1.1895074
759,7.589999999999883,-4.101093,-1.4704516,2.5483804,11.738234,-4.007276,1.3180945
760,7.599999999999882,-3.831992,-1.2287303,2.3497713,11.084608,-3.7015378,1.2380711
761,7.609999999999882,-3.7827816,-1.0896367,2.3173304,10.741454,-3.5413384,1.268309
762,7.619999999999882,-3.7827816,-1.0896367,2.3173304,10.741454,-3.5413384,1.268309
763,7.629999999999882,-4.81461,-0.8082179,2.391237,8.656724,-4.3316455,2.2713497
764,7.6399999999998816,-5.148837,-0.91779745,2.4409351,8.710175,-4.364327,3.0181324
765,7.649999999999881,-5.4040346,-1.2007408,2.0948782,9.167713,-3.614795,5.0572004
766,7.659999999999881,-5.6047783,-1.7221128,1.7557122,9.10571,-2.5784621,6.9415674
767,7.669999999999881,-5.5276394,-2.159943,1.5615546,8.763779,-1.8874209,8.37878
768,7.679999999999881,-5.099261,-2.994199,1.3767877,6.9281282,-1.766775,10.19076
769,7.6899999999998805,-4.651247,-3.0832288,1.4686832,6.9281282,-1.766775,10.19076
770,7.69999999999988,-4.651247,-3.0832288,1.4686832,6.0932283,-3.1694744,10.268339
771,7.70999999999988,-4.429588,-3.03286,1.5521028,6.1120124,-4.9964194,9.657016
772,7.71999999999988,-4.429588,-3.03286,1.5521028,6.7642636,-4.7152686,9.5976095
773,7.72999999999988,-4.921507,-3.0198102,1.7029651,7.605578,-3.8296669,9.742384
774,7.739999999999879,-4.755399,-2.9824302,1.7879701,5.83132,-4.3079743,10.032851
775,7.749999999999879,-4.7438745,-2.9385252,1.3328826,8.424137,-1.4633276,10.161133
776,7.759999999999879,-4.6168547,-2.8903518,1.0821364,8.107098,-0.61926466,10.265743
777,7.769999999999879,-4.493494,-2.8116276,0.93133485,7.180874,-0.09789115,10.234436
778,7.779999999999879,-4.239699,-2.6233847,0.9330422,6.307031,-0.25121832,10.098672
779,7.789999999999878,-4.0899944,-2.4300199,1.0568908,5.372102,-0.6750061,9.848675
780,7.799999999999878,-4.1742067,-2.3952618,1.1228703,4.864473,-0.9786061,9.720698
781,7.809999999999878,-4.100788,-2.3895295,1.235133,4.493983,-0.968985,9.592264
782,7.819999999999878,-3.93151,-2.265681,1.3936789,4.447099,-0.7021896,9.495442
783,7.8299999999998775,-3.6340535,-2.0913415,1.5246621,4.8038445,-0.2275473,9.460318
784,7.839999999999877,-3.3653183,-2.0453632,1.5292356,5.3123894,0.22968534,9.454361
785,7.849999999999877,-3.0619469,-2.113233,1.3547132,5.957616,0.81336707,9.381363
786,7.859999999999877,-2.8054686,-2.2806818,1.2477558,6.3754478,1.3148874,9.134879
787,7.869999999999877,-2.7396111,-2.3936152,1.1645192,6.598261,1.2279918,8.836777
788,7.879999999999876,-2.4999628,-2.5198421,1.0052416,6.792669,0.66614854,8.609229
789,7.889999999999876,-2.2046409,-2.5839922,0.6532698,6.890102,0.16737708,8.501717
790,7.899999999999876,-1.6718048,-2.76882,0.36020395,7.006624,0.049632803,8.445518
791,7.909999999999876,-1.6718048,-2.76882,0.36020395,7.10589,0.39553526,8.389624
792,7.919999999999876,-1.0217669,-3.1253653,-0.04994194,7.060686,1.459357,8.229576
793,7.929999999999875,0.10079856,-3.989257,-0.91987073,5.977927,3.782783,7.4950113
794,7.939999999999875,0.336544,-4.50819,-1.3306874,4.674494,4.3473754,6.9695144
795,7.949999999999875,0.5830828,-4.998889,-1.6199726,2.1696405,4.6831985,6.295272
796,7.959999999999875,0.91255325,-5.7702146,-1.6013129,-0.40210205,4.6341763,5.6138515
797,7.9699999999998745,1.2488533,-6.309332,-0.9237125,-0.40210205,4.6341763,5.6138515
798,7.979999999999874,1.5324064,-6.607215,-0.13848369,-5.304601,2.8672488,3.1323643
799,7.989999999999874,1.9066355,-6.560566,0.8875518,-5.4889297,2.3344216,1.8489364
800,7.999999999999874,1.9629803,-6.2454863,1.4631951,-4.728097,1.8584048,0.37782016
801,8.009999999999874,1.6783907,-5.5716667,1.7892509,-2.9949195,1.1743884,-1.4019357
802,8.019999999999873,1.2794648,-4.996206,1.7626028,-1.1386528,0.35140023,-2.8964176
803,8.029999999999873,0.8106571,-4.3056173,1.44045,0.0290161,-0.356898,-3.8967094
804,8.039999999999873,0.3919741,-3.7191803,0.9349326,0.767094,-1.2278391,-4.960073
805,8.049999999999873,-0.026343001,-3.3261087,0.60716957,0.81061816,-1.8365663,-5.715866
806,8.059999999999873,-0.480089,-2.9552333,0.28087005,-0.19272798,-2.8316658,-7.3279395
807,8.069999999999872,-0.8197429,-2.7238784,0.13573962,-0.19272798,-2.8316658,-7.3279395
808,8.079999999999872,-1.2861116,-2.455326,0.11165286,-0.7997753,-3.1199942,-8.096408
809,8.089999999999872,-1.8973668,-2.107928,0.05256404,-1.4993688,-3.2965343,-8.878162
810,8.099999999999872,-2.7036943,-1.4482552,-0.13567865,-2.2177463,-3.3579264,-9.333868
811,8.109999999999872,-2.7036943,-1.4482552,-0.13567865,-3.7749946,-3.274085,-9.599748
812,8.119999999999871,-2.757539,-1.352213,-0.17202222,-3.7749946,-3.274085,-9.599748
813,8.129999999999871,-3.152684,-1.4743543,0.03457519,-5.843537,-3.0793717,-10.138378
814,8.139999999999871,-3.6103935,-1.4792327,0.14019111,-6.510449,-3.0063734,-9.926408
815,8.14999999999987,-3.6103935,-1.4792327,0.14019111,-6.510449,-3.0063734,-9.926408
816,8.15999999999987,-3.4214194,-1.3755682,0.33965397,-7.5728965,-2.251344,-8.337241
817,8.16999999999987,-3.146342,-1.4467307,0.5664965,-7.806858,-1.4011722,-7.791739
818,8.17999999999987,-2.8787045,-1.4890503,0.6866255,-7.7624173,-0.6084218,-7.624667
819,8.18999999999987,-2.6742415,-1.6250339,0.746385,-7.7624173,-0.6084218,-7.624667
820,8.19999999999987,-2.6742415,-1.6250339,0.746385,-7.670482,0.45265114,-7.777689
821,8.20999999999987,-2.6742415,-1.6250339,0.746385,-7.670482,0.45265114,-7.777689
822,8.21999999999987,-2.959563,-2.4782543,0.58296084,-8.521112,2.01387,-8.884424
823,8.229999999999869,-3.858274,-2.681315,0.6904671,-8.95223,2.2594378,-8.601899
824,8.239999999999869,-4.4830055,-2.6044202,0.9274322,-9.140987,2.5260806,-7.475005
825,8.249999999999869,-4.3921466,-2.3606255,1.1056743,-9.140987,2.5260806,-7.475005
826,8.259999999999868,-3.8969958,-2.418129,1.0504271,-9.344253,3.7426186,-3.866166
827,8.269999999999868,-3.5425847,-2.4871573,1.039207,-9.725432,4.0819545,-3.8638754
828,8.279999999999868,-3.377453,-2.5619788,1.0914661,-10.217179,4.3498187,-3.893808
829,8.289999999999868,-3.4869108,-2.675278,1.240926,-10.439229,4.5346055,-3.4567337
830,8.299999999999867,-4.2428083,-2.5542953,1.7976048,-10.338894,4.6379943,-2.550057
831,8.309999999999867,-4.300434,-2.3936152,2.013349,-10.338894,4.6379943,-2.550057
832,8.319999999999867,-4.300434,-2.3936152,2.013349,-9.978025,4.700761,-1.2892311
833,8.329999999999867,-4.300434,-2.3936152,2.013349,-9.978025,4.700761,-1.2892311
834,8.339999999999867,-3.6234431,-2.3545885,2.0913415,-9.079901,5.0961432,0.453262
835,8.349999999999866,-3.4348345,-2.2209222,2.0642667,-8.7905035,5.6616516,0.28389964
836,8.359999999999866,-4.162804,-2.0315819,2.473254,-9.211542,6.532593,0.12965615
837,8.369999999999866,-4.235674,-1.7419308,3.4089794,-8.926269,6.5425196,0.55970526
838,8.379999999999866,-4.209087,-1.6169846,3.8565056,-7.8694715,5.956547,0.9735665
839,8.389999999999866,-3.9667559,-1.6398518,4.1550593,-6.7712884,5.4415874,1.3326025
840,8.399999999999865,-3.5231931,-1.7755914,4.2873845,-5.6873083,5.5182514,1.4527903
841,8.409999999999865,-2.8007731,-1.583568,4.5651445,-4.3875394,6.405686,0.90316427
842,8.419999999999865,-2.549173,-1.1627508,4.899188,-4.3875394,6.405686,0.90316427
843,8.429999999999865,-3.038775,-0.50515145,5.417877,-2.0270035,8.790351,-0.9586003
844,8.439999999999864,-3.894069,0.051283482,5.807412,-1.2577715,9.628305,-1.4086553
845,8.449999999999864,-5.119018,0.88669807,6.351163,-1.2334896,9.704663,-1.0380127
846,8.459999999999864,-5.5517263,1.3489811,6.95315,-2.1423044,8.621752,0.13637567
847,8.469999999999864,-5.3691545,1.100491,7.6705084,-3.157257,6.909191,1.0093021
848,8.479999999999864,-4.8993106,0.86553836,8.406649,-4.0372086,2.767067,1.0684034
849,8.489999999999863,-4.7055793,0.4188659,9.296579,-4.0372086,2.767067,1.0684034
850,8.499999999999863,-3.330621,-0.6846131,9.972533,-3.109915,-0.31658092,0.92057395
851,8.509999999999863,-3.330621,-0.6846131,9.972533,2.4485006,-5.2592444,-0.6805039
852,8.519999999999863,-2.6016152,-0.9487139,9.062053,5.302463,-6.4122524,-1.8333594
853,8.529999999999863,-2.8810825,-1.0700015,7.814724,5.302463,-6.4122524,-1.8333594
854,8.539999999999862,-4.200062,-1.1022594,4.6114883,9.381058,-7.0050974,-2.414445
855,8.549999999999862,-4.200062,-1.1022594,4.6114883,9.849439,-6.4762406,-1.728596
856,8.559999999999862,-4.2668953,-0.71577346,3.0953634,9.848827,-5.776342,-0.66966105
857,8.569999999999862,-3.7958922,-0.41673166,2.4556313,9.145111,-5.0587277,0.5696318
858,8.579999999999862,-3.5785017,-0.29459035,2.1351247,7.9384995,-5.0857587,1.4601207
859,8.589999999999861,-3.5994782,-0.26391783,1.8650478,7.0787063,-5.465106,1.9236146
860,8.599999999999861,-3.65936,-0.33758068,1.6592431,5.59354,-6.34353,2.7252226
861,8.60999999999986,-3.609174,-0.6109503,1.5768603,4.3852487,-7.2984653,3.4115298
862,8.61999999999986,-3.5133758,-1.0733553,1.8739508,3.8612792,-7.6733837,3.8464658
863,8.62999999999986,-3.444652,-1.4586216,2.107928,4.179998,-7.461261,3.9455786
864,8.63999999999986,-3.4395912,-1.808886,2.3018417,5.008637,-7.0142603,3.9084685
865,8.64999999999986,-3.5852091,-2.1034155,2.367821,6.481433,-6.1640882,3.7797287
866,8.65999999999986,-3.7688172,-2.1913474,2.3524542,7.7451606,-5.317582,3.7965274
867,8.66999999999986,-4.0220637,-2.303244,2.0038364,7.7451606,-5.317582,3.7965274
868,8.67999999999986,-4.0220637,-2.303244,2.0038364,7.7451606,-5.317582,3.7965274
869,8.68999999999986,-4.422148,-2.192079,1.4292907,9.360441,-4.535369,4.933806
870,8.699999999999859,-4.524898,-2.0938418,1.2628176,8.899695,-4.592485,5.451056
871,8.709999999999859,-4.610269,-1.8371803,1.3655065,8.224537,-4.077831,6.264423
872,8.719999999999859,-4.5864263,-1.7973,1.2917217,8.224537,-4.077831,6.264423
873,8.729999999999858,-4.5864263,-1.7973,1.2917217,8.102516,-3.5505016,6.7471595
874,8.739999999999858,-4.475078,-1.7996172,1.1242119,7.7967787,-3.2383494,7.077943
875,8.749999999999858,-4.261468,-1.7323571,0.7283961,6.7363167,-3.3140967,7.3442802
876,8.759999999999858,-4.183415,-1.7349793,0.5245428,6.0774984,-3.396258,7.404145
877,8.769999999999857,-3.9752927,-1.6913792,0.4988096,5.3899693,-3.2171218,7.6449785
878,8.779999999999857,-3.728693,-1.6815615,0.49771196,5.3899693,-3.2171218,7.6449785
879,8.789999999999857,-3.497399,-1.697721,0.4797841,4.7514625,-2.4078782,7.8823
880,8.799999999999857,-3.3908076,-1.7079045,0.45124584,4.5297184,-1.9920316,7.7750926
881,8.809999999999857,-3.5334988,-2.0246303,0.28123593,4.5297184,-1.9920316,7.7750926
882,8.819999999999856,-3.3881245,-2.2023237,0.079211935,4.4037275,-1.2976305,7.4608026
883,8.829999999999856,-3.1773195,-2.2737303,-0.24769738,4.3330197,-1.2278391,7.095505
884,8.839999999999856,-2.9057183,-2.3786144,-0.6443059,4.0327797,-1.114371,6.7627363
885,8.849999999999856,-2.288792,-2.5151467,-1.0886611,3.2933273,-0.77274454,6.454555
886,8.859999999999856,-1.5145396,-2.686681,-1.3521521,2.431091,-0.4014912,6.150344
887,8.869999999999855,-0.76699597,-2.7509532,-1.5431999,1.8277088,-0.06627888,6.031378
888,8.879999999999855,-0.09896919,-2.8236403,-1.6267412,1.2867876,0.33414328,5.8598776
889,8.889999999999855,0.7987051,-3.131158,-1.817667,0.77411896,1.0366384,5.2445836
890,8.899999999999855,1.0765872,-3.2090287,-1.730101,-0.105832405,1.361924,4.480391
891,8.909999999999854,1.0765872,-3.2090287,-1.730101,-0.9512699,0.75136423,3.8499782
892,8.919999999999854,1.4642318,-3.4314196,-1.7566268,-2.3367124,-1.706452,2.696512
893,8.929999999999854,1.6629629,-3.5489876,-1.718088,-2.3367124,-1.706452,2.696512
894,8.939999999999854,2.2872677,-3.9031546,-1.794678,-2.4220808,-2.6920831,2.64749
895,8.949999999999854,2.2872677,-3.9031546,-1.794678,-1.890628,-2.1749856,2.630233
896,8.959999999999853,2.8521786,-4.2952504,-1.4611218,-1.0803152,-1.6954565,2.3165538
897,8.969999999999853,2.9995043,-4.3334846,-1.3466029,0.13469578,-1.1030699,1.585348
898,8.979999999999853,3.0515807,-4.284457,-1.37008,1.2739595,-0.8901834,0.462425
899,8.989999999999853,3.0135295,-4.1086545,-1.6216799,1.7354681,-0.98456204,-0.8016079
900,8.999999999999853,2.7644296,-3.8846169,-1.8008977,1.6533068,-1.2169963,-2.357329
901,9.009999999999852,2.119209,-3.5580122,-1.9127334,0.8385653,-1.6197093,-4.509102
902,9.019999999999852,1.273245,-3.3039122,-1.8887687,-0.18188512,-1.8044959,-6.1344614
903,9.029999999999852,0.1861694,-2.8914492,-1.730223,-1.6218473,-1.5303701,-7.642077
904,9.039999999999852,-1.0189619,-2.4931333,-1.3559328,-2.614656,-1.0126618,-8.209571
905,9.049999999999851,-1.0189619,-2.4931333,-1.3559328,-2.614656,-1.0126618,-8.209571
906,9.059999999999851,-2.6116767,-1.6632679,-0.6384519,-3.8957932,0.32635477,-7.6921678
907,9.069999999999851,-2.8058953,-1.443133,-0.301481,-3.8957932,0.32635477,-7.6921678
908,9.07999999999985,-3.0111513,-1.1979357,0.10037171,-4.608062,1.1068878,-7.581296
909,9.08999999999985,-3.2413478,-1.1975088,0.2145247,-5.8562126,0.71593404,-7.5055485
910,9.09999999999985,-3.2413478,-1.1975088,0.2145247,-5.8562126,0.71593404,-7.5055485
911,9.10999999999985,-3.204821,-1.2796478,0.36550912,-6.6582785,0.4034765,-7.3526797
912,9.11999999999985,-3.1329267,-1.3948984,0.6073525,-7.4803505,-0.08827003,-7.1136785
913,9.12999999999985,-3.1567695,-1.5158201,0.7762648,-7.8629045,-0.43936482,-6.8038173
914,9.13999999999985,-3.1562817,-1.583568,0.91791934,-7.9780526,-0.5170974,-6.0874248
915,9.14999999999985,-3.1562817,-1.583568,0.91791934,-7.7724967,-0.38163805,-5.39058
916,9.15999999999985,-3.1562817,-1.583568,0.91791934,-7.1495667,0.74189585,-4.4614544
917,9.169999999999849,-2.3843465,-1.7329669,0.7247984,-7.3925385,0.061239243,-4.741536
918,9.179999999999849,-2.3843465,-1.7329669,0.7247984,-7.0269356,1.7412714,-4.3217187
919,9.189999999999849,-2.2891579,-2.0330455,0.29721245,-7.422929,3.7794232,-4.415792
920,9.199999999999848,-2.52344,-2.1026227,0.31715265,-7.896197,4.488027,-4.433965
921,9.209999999999848,-2.8469343,-2.1907375,0.5060051,-8.539591,5.013982,-4.2468877
922,9.219999999999848,-3.0467632,-2.2370818,0.7268107,-9.0635605,5.1857877,-3.8899899
923,9.229999999999848,-3.2119558,-2.2651932,0.9379206,-9.368535,5.080719,-3.552487
924,9.239999999999847,-3.2356155,-2.251473,1.1582993,-9.5156,4.9083023,-3.1257975
925,9.249999999999847,-3.0985954,-2.1974454,1.463561,-9.27721,4.928919,-2.6412287
926,9.259999999999847,-2.938281,-2.1204286,1.6255217,-8.709869,5.2062516,-2.4295638
927,9.269999999999847,-2.868338,-2.037253,1.7436384,-7.655058,5.9880066,-2.410169
928,9.279999999999847,-2.859435,-1.8813903,1.6901597,-6.4334803,6.9963923,-2.5192082
929,9.289999999999846,-3.2016501,-1.8187648,1.5061245,-5.7108264,7.4586644,-2.4956899
930,9.299999999999846,-3.3457441,-1.7245518,1.2354989,-5.490762,7.4178896,-2.1528418
931,9.309999999999846,-3.3465366,-1.6557063,0.9749349,-6.758613,6.637967,-1.7673858
932,9.319999999999846,-3.3408659,-1.6677803,1.0013999,-6.758613,6.637967,-1.7673858
933,9.329999999999846,-3.7923553,-1.5646645,1.645218,-7.708814,6.1779857,-1.6333009
934,9.339999999999845,-4.2692127,-1.5727137,2.1639068,-7.683005,6.405991,-1.1275045
935,9.349999999999845,-4.698384,-1.6793664,2.5463681,-7.5038686,6.675841,-0.28221974
936,9.359999999999845,-4.727532,-1.8285823,2.873948,-7.349167,6.696305,0.46746463
937,9.369999999999845,-4.1903057,-1.8333997,3.5163026,-6.969056,6.7616673,0.93202764
938,9.379999999999844,-3.7929654,-1.717844,4.1284723,-6.969056,6.7616673,0.93202764
939,9.389999999999844,-3.567769,-1.5239913,4.853942,-4.3886085,7.013802,0.29153544
940,9.399999999999844,-3.6724093,-1.2735499,5.1856074,-2.6251934,7.66697,-0.45616361
941,9.409999999999844,-4.4092817,-0.7533366,5.005658,-1.02549,8.385653,-1.5903877
942,9.419999999999844,-5.4489765,-0.37544873,4.633868,-0.9934196,7.9374304,-1.8574885
943,9.429999999999843,-6.0927944,-0.06421106,4.586548,-2.3344216,6.112776,-1.0143417
944,9.439999999999843,-6.07755,-0.23537959,4.969375,-3.6699257,4.321108,-0.28863382
945,9.449999999999843,-5.49404,-0.44014767,5.785216,-4.608062,2.5422685,0.12492194
946,9.459999999999843,-4.6023417,-0.23580644,6.6785603,-4.097684,1.4077389,0.001985312
947,9.469999999999843,-4.1088376,0.00512225,7.0085187,-2.7763824,0.6281222,-0.35964692
948,9.479999999999842,-3.8908978,0.22489117,6.8739986,-0.7835874,-0.59757894,-0.8167268
949,9.489999999999842,-3.9149237,0.2681864,6.4643407,0.8217665,-1.6716328,-0.96852684
950,9.499999999999842,-4.147803,-0.035124,4.8995543,2.639396,-2.9023736,-0.7965683
951,9.509999999999842,-4.147803,-0.035124,4.8995543,3.7575848,-3.7285688,-0.50961435
952,9.519999999999841,-4.0495048,-0.1870231,4.1674995,4.6885433,-4.5069637,-0.110413894
953,9.529999999999841,-3.471239,-0.21531744,2.7780278,5.2739053,-5.3812647,0.4279111
954,9.539999999999841,-3.3055587,-0.20617057,2.429654,5.177694,-5.690515,0.5300783
955,9.54999999999984,-3.1714654,-0.33672696,2.0568883,4.6857944,-6.340323,0.660498
956,9.55999999999984,-3.0938392,-0.42173192,1.9977994,4.4081564,-6.6397996,0.7457138
957,9.56999999999984,-3.0938392,-0.42173192,1.9977994,4.4081564,-6.6397996,0.7457138
958,9.57999999999984,-3.5249007,-0.7741915,2.028533,4.468785,-7.4641623,0.89629203
959,9.58999999999984,-3.9834642,-1.0690258,1.9973116,5.023603,-7.8383174,1.3942999
960,9.59999999999984,-4.318667,-1.3756291,1.8680968,5.617822,-8.120537,1.9656117
961,9.60999999999984,-4.5736203,-1.8363876,1.7001601,6.481433,-8.278599,2.7791314
962,9.61999999999984,-4.5856333,-2.1478083,1.5723479,7.2584534,-8.138405,3.3707545
963,9.62999999999984,-4.5856333,-2.1478083,1.5723479,8.270046,-7.666359,3.8327212
964,9.639999999999839,-4.4803224,-2.608262,1.2534878,8.270046,-7.666359,3.8327212
965,9.649999999999839,-4.499592,-2.4456916,1.3794707,8.270046,-7.666359,3.8327212
966,9.659999999999838,-4.379646,-2.7165,1.0457927,9.967488,-4.5591927,5.2595496
967,9.669999999999838,-4.384951,-2.705036,0.9822524,9.885174,-3.5702019,6.5052567
968,9.679999999999838,-4.4178796,-2.6802173,0.89200324,9.885174,-3.5702019,6.5052567
969,9.689999999999838,-4.375438,-2.5541124,0.7690083,8.986286,-3.8255436,7.63215
970,9.699999999999838,-4.23482,-2.3447099,0.61485296,8.263327,-4.3041563,8.082206
971,9.709999999999837,-4.115362,-2.2354963,0.69266236,7.6179476,-4.5556803,8.38382
972,9.719999999999837,-4.0412116,-2.2026284,0.7660813,7.3740597,-4.6593747,8.531955
973,9.729999999999837,-4.054627,-2.1681144,0.9229197,7.4130025,-4.358829,8.598234
974,9.739999999999837,-4.054627,-2.1681144,0.9229197,7.4130025,-4.358829,8.598234
975,9.749999999999837,-3.8237598,-2.0323749,0.8612088,8.064185,-2.6931522,8.820589
976,9.759999999999836,-3.7301567,-2.0233498,0.7538245,8.146957,-1.8990273,8.909622
977,9.769999999999836,-3.6791172,-1.9949944,0.5483857,7.935445,-1.3535247,8.961088
978,9.779999999999836,-3.5525854,-1.9231,0.37916848,7.518377,-1.159575,9.0065975
979,9.789999999999836,-3.1664042,-1.8162036,0.15415533,6.699054,-0.9755518,8.961546
980,9.799999999999836,-3.1664042,-1.8162036,0.15415533,6.699054,-0.9755518,8.961546
981,9.809999999999835,-2.8405926,-1.6328391,0.020671938,4.658,-0.8700248,8.236296
982,9.819999999999835,-3.0112734,-1.8081543,0.08640748,3.8363864,-1.2124147,7.996379
983,9.829999999999835,-2.965112,-2.1178064,0.086285524,3.600287,-1.560608,7.9754567
984,9.839999999999835,-2.5688086,-2.4145312,-0.035733793,3.7423131,-1.5694655,8.00096
985,9.849999999999834,-1.8709018,-2.8019319,-0.28611428,4.5804205,-0.19883664,7.6408553
986,9.859999999999834,-0.37630245,-3.7023501,-0.9457259,4.5804205,-0.19883664,7.6408553
987,9.869999999999834,0.4852722,-4.156157,-1.5499076,4.7904053,0.74067414,7.367951
988,9.879999999999834,0.9823134,-4.3824506,-2.0879266,4.5297184,1.5216653,6.735553
989,9.889999999999834,1.3450785,-4.7505817,-2.526672,1.3859005,2.411238,5.257412
990,9.899999999999833,1.4532555,-5.105481,-2.6089327,-0.82558435,2.0239494,4.5821004
991,9.909999999999833,1.4532555,-5.105481,-2.6089327,-0.82558435,2.0239494,4.5821004
992,9.919999999999833,1.9054769,-5.8588176,-1.9431012,-4.910898,0.23365596,3.354872
993,9.929999999999833,2.1815906,-5.941505,-1.2248886,-5.325981,0.24678956,2.4860687
994,9.939999999999833,2.1815906,-5.941505,-1.2248886,-4.6470046,0.70249504,1.6395624
995,9.949999999999832,2.2300692,-5.5594707,-0.28763872,-3.013551,1.3457361,0.48502702
996,9.959999999999832,2.2814136,-5.1862783,-0.12799528,-1.4746287,1.785559,-0.75991637
997,9.969999999999832,2.1034155,-4.6147203,-0.27032065,0.04505131,1.9092593,-2.6971228
998,9.979999999999832,1.6863788,-4.195001,-0.49307755,0.5271767,1.4301883,-4.291176
999,9.989999999999831,1.0568908,-3.701862,-0.66479486,0.3052799,0.34193182,-6.1646996
1000,9.999999999999831,0.49624845,-3.351171,-0.7185785,-0.26618454,-0.5403103,-7.610617
