id,timestamp,acc_x,acc_y,acc_z,gyro_x,gyro_y,gyro_z
0,0,0.178547,0.15342359,-1.5050877,0.38056904,3.6247218,1.5662584
1,0.01,0.07817529,0.32093337,-1.6601579,0.6261369,2.7519479,1.3536774
2,0.02,0.041221917,0.26099083,-1.8820001,0.929126,1.1053606,0.91339624
3,0.03,0.017562,0.22202514,-1.9836524,0.7644979,0.1067487,0.64858615
4,0.04,0.017562,0.22202514,-1.9836524,0.7644979,0.1067487,0.64858615
5,0.05,0.017379062,0.2034265,-2.0014582,0.50717086,-0.28328875,0.52626044
6,0.060000000000000005,0.008720021,0.23562351,-1.8308386,0.50717086,-0.28328875,0.52626044
7,0.07,-0.014452063,0.21482961,-1.8912688,-0.90667677,-1.4022411,0.14752395
8,0.08,-0.0011586042,0.30270058,-1.5661889,-1.1339186,-1.696831,0.028710667
9,0.09,-0.019940188,0.33849534,-1.4595973,-1.1339186,-1.696831,0.028710667
10,0.09999999999999999,-0.00060979166,0.37502187,-1.3667871,-1.4859297,-2.4049764,-0.23609942
11,0.10999999999999999,0.014878917,0.38746163,-1.3097715,-1.6038266,-2.5951083,-0.33643404
12,0.11999999999999998,0.045917314,0.3860591,-1.197387,-1.824349,-2.9263499,-0.5358815
13,0.12999999999999998,0.034758125,0.38441268,-1.0990275,-1.9682078,-3.2217033,-0.68600166
14,0.13999999999999999,0.05256404,0.35800868,-1.009815,-2.0770946,-3.467882,-0.80680025
15,0.15,0.073723815,0.30922535,-0.90328443,-2.2160664,-3.737579,-0.96929044
16,0.16,0.07280912,0.27385744,-0.84096366,-2.4740043,-4.100891,-1.2140946
17,0.17,-0.020367041,0.11976309,-0.6923575,-2.6186266,-4.253149,-1.2180653
18,0.18000000000000002,-0.020367041,0.11976309,-0.6923575,-2.6186266,-4.253149,-1.2180653
19,0.19000000000000003,-0.006768687,-0.025367333,-0.5461904,-3.0147727,-4.7142,-0.9616546
20,0.20000000000000004,-0.006768687,-0.025367333,-0.5461904,-3.0147727,-4.7142,-0.9616546
21,0.21000000000000005,0.040612124,-0.058844898,-0.43953782,-3.153439,-4.96496,-0.8061894
22,0.22000000000000006,0.23879443,-0.1185435,-0.13470298,-3.39244,-5.6532526,-0.49296826
23,0.23000000000000007,0.33294627,-0.14720371,0.021586625,-3.39244,-5.6532526,-0.49296826
24,0.24000000000000007,0.4686859,-0.15208204,0.19891405,-3.3820555,-6.091243,-0.43478334
25,0.25000000000000006,0.5271649,-0.14945993,0.2978832,-3.3318117,-6.2373924,-0.4802928
26,0.26000000000000006,0.63211006,-0.13866661,0.42551264,-3.2586606,-6.5264845,-0.6450737
27,0.2700000000000001,0.63211006,-0.13866661,0.42551264,-3.376863,-6.793738,-0.84039783
28,0.2800000000000001,0.78937536,-0.30837163,0.6961991,-3.5031595,-6.946149,-1.0204504
29,0.2900000000000001,0.79461956,-0.38563228,0.9018819,-3.529732,-6.8916287,-1.1517864
30,0.3000000000000001,0.81004727,-0.42728102,0.9444453,-3.491553,-6.77419,-1.1458305
31,0.3100000000000001,0.8755389,-0.51015174,0.97828877,-3.4895678,-6.527248,-0.97310835
32,0.3200000000000001,0.9271883,-0.57936305,1.0210961,-3.5025487,-6.381862,-0.8257371
33,0.3300000000000001,1.1695194,-0.6502209,1.1023813,-3.3457088,-5.999613,-0.5045747
34,0.34000000000000014,1.1695194,-0.6502209,1.1023813,-3.3457088,-5.999613,-0.5045747
35,0.35000000000000014,1.2567197,-0.70235807,1.0897588,-3.5257614,-5.76779,-0.59605175
36,0.36000000000000015,1.3520911,-0.7374211,1.0770141,-3.5257614,-5.76779,-0.59605175
37,0.37000000000000016,1.3520911,-0.7374211,1.0770141,-3.5257614,-5.76779,-0.59605175
38,0.38000000000000017,1.3805073,-0.74455565,1.0720137,-3.5647042,-5.783825,-0.6206391
39,0.3900000000000002,1.4622804,-0.89157635,1.2700741,-4.6089783,-6.4820437,-1.056186
40,0.4000000000000002,1.5844218,-0.8382196,1.7047945,-4.0781364,-6.4434066,-1.186453
41,0.4100000000000002,1.612899,-0.8595013,1.6936964,-3.3302846,-6.1216335,-1.2993103
42,0.4200000000000002,1.6350344,-0.87724626,1.5835071,-2.7714956,-5.9935045,-1.2925909
43,0.4300000000000002,1.6959527,-0.91188246,1.4592924,-2.3044891,-6.1222444,-1.1643091
44,0.4400000000000002,1.7640054,-0.94206715,1.349713,-2.1594086,-6.4263024,-1.0740538
45,0.45000000000000023,1.8046175,-0.9258467,1.3192234,-2.1594086,-6.4263024,-1.0740538
46,0.46000000000000024,1.8186426,-0.92761505,1.3340412,-2.254398,-7.0764155,-1.151481
47,0.47000000000000025,1.8398634,-0.895479,1.5857632,-2.2864685,-7.5394516,-1.3321444
48,0.48000000000000026,1.8505348,-0.87755126,1.6763173,-2.2470677,-7.556403,-1.3562735
49,0.49000000000000027,1.770957,-0.8229139,1.8585231,-1.7699821,-7.1286445,-1.3807082
50,0.5000000000000002,1.607106,-0.7778503,1.7910192,-1.2469287,-6.3595653,-1.1468995
51,0.5100000000000002,1.5753968,-0.76065415,1.7340037,-1.0764973,-6.137363,-1.0280862
52,0.5200000000000002,1.4786229,-0.75272685,1.5053318,-0.73761976,-5.841857,-0.73471814
53,0.5300000000000002,1.4786229,-0.75272685,1.5053318,-0.73761976,-5.841857,-0.73471814
54,0.5400000000000003,1.4786229,-0.75272685,1.5053318,-0.73761976,-5.841857,-0.73471814
55,0.5500000000000003,1.5780189,-0.506493,1.6577797,-0.7651087,-6.764416,-0.48395798
56,0.5600000000000003,1.7081485,-0.46825904,1.7877872,-0.8718574,-6.778466,-0.4259258
57,0.5700000000000003,1.7081485,-0.46825904,1.7877872,-1.1107057,-6.3696446,-0.33368513
58,0.5800000000000003,1.6213142,-0.3577038,1.9259051,-1.5528195,-5.575825,-0.5513059
59,0.5900000000000003,1.4619756,-0.41575596,1.9065137,-2.3628268,-4.171599,-0.8753699
60,0.6000000000000003,1.4619756,-0.41575596,1.9065137,-2.3628268,-4.171599,-0.8753699
61,0.6100000000000003,1.3880688,-0.49344343,1.9851767,-2.6940684,-3.587917,-0.91415983
62,0.6200000000000003,0.8818807,-0.58790016,2.3579423,-2.2519548,-1.2325734,-0.6433938
63,0.6300000000000003,0.7478485,-0.58503413,2.309281,-1.547169,-0.5746715,-0.31871894
64,0.6400000000000003,0.7651056,-0.58661956,2.2407405,-1.547169,-0.5746715,-0.31871894
65,0.6500000000000004,0.8185843,-0.5635085,2.189823,-0.24373524,0.35735616,0.33414328
66,0.6600000000000004,0.8185843,-0.5635085,2.189823,0.7834347,1.1971432,0.79473567
67,0.6700000000000004,1.068477,-0.44148916,1.7849213,1.2423472,1.7531832,0.9763154
68,0.6800000000000004,1.1812274,-0.40356013,1.548261,1.2423472,1.7531832,0.9763154
69,0.6900000000000004,1.2958074,-0.38337603,1.3839831,1.5236506,2.7594311,0.9764681
70,0.7000000000000004,1.349164,-0.38569325,1.3167841,1.4998269,2.912911,0.870483
71,0.7100000000000004,1.4307543,-0.4161218,1.2629396,1.4468343,3.0074422,0.60918534
72,0.7200000000000004,1.4535604,-0.45155072,1.2489753,1.4468343,3.0074422,0.60918534
73,0.7300000000000004,1.4006914,-0.4923458,1.2450117,1.3907875,3.1065552,0.2144137
74,0.7400000000000004,1.4006914,-0.4923458,1.2450117,1.3907875,3.1065552,0.2144137
75,0.7500000000000004,1.4250832,-0.5262502,1.2637322,1.1586586,3.5286632,0.18677205
76,0.7600000000000005,1.6203995,-0.62735367,1.4345958,1.1586586,3.5286632,0.18677205
77,0.7700000000000005,1.6789393,-0.7002848,1.5266744,0.93951076,4.023922,0.14172074
78,0.7800000000000005,1.677354,-0.793156,1.5926539,0.73960507,4.7584877,0.060322944
79,0.7900000000000005,1.677354,-0.793156,1.5926539,0.6082691,5.6011763,0.058490347
80,0.8000000000000005,1.6788175,-0.90645534,1.6598529,0.6939429,6.659195,0.35934147
81,0.8100000000000005,1.7762011,-0.9701786,1.6620482,1.0228939,7.340615,0.8026769
82,0.8200000000000005,1.8749266,-0.99188715,1.6959527,1.3393221,7.699498,1.1016954
83,0.8300000000000005,1.9748714,-0.99518,1.6960746,1.8532125,8.024173,1.404532
84,0.8400000000000005,2.0529246,-0.9879235,1.6845495,1.8532125,8.024173,1.404532
85,0.8500000000000005,2.1418934,-0.98956996,1.612838,2.8823676,8.248513,1.7085901
86,0.8600000000000005,2.169334,-0.9874967,1.595093,3.2099442,8.170017,1.7342464
87,0.8700000000000006,2.1818955,-0.9487749,1.4865501,3.796222,7.8086905,1.6685784
88,0.8800000000000006,2.1557355,-0.8750511,1.4259369,4.1638103,7.3016725,1.4760032
89,0.8900000000000006,2.1178675,-0.82669455,1.378678,4.310876,6.9531736,1.2812898
90,0.9000000000000006,1.9538335,-0.7384577,1.2531219,4.355469,6.550155,0.893085
91,0.9100000000000006,1.8449856,-0.70668757,1.1845813,4.158618,6.425081,0.5729916
92,0.9200000000000006,1.720893,-0.6358298,1.1871424,3.9019017,6.3658266,0.36972618
93,0.9300000000000006,1.6258876,-0.58564395,1.2026312,3.6882517,6.373921,0.23625213
94,0.9400000000000006,1.5028316,-0.5253965,1.2391577,3.55661,6.2934394,0.0021380284
95,0.9500000000000006,1.5028316,-0.5253965,1.2391577,3.55661,6.2934394,0.0021380284
96,0.9600000000000006,1.4434378,-0.50094384,1.2158636,3.5546248,6.1650047,-0.10873401
97,0.9700000000000006,1.305686,-0.4305739,1.100552,3.317609,6.1679063,-0.42088616
98,0.9800000000000006,1.2401333,-0.43929392,1.0819534,3.2586606,6.208987,-0.4569272
99,0.9900000000000007,1.1377493,-0.48454046,1.0123152,3.1392365,6.4316473,-0.42073345
100,1.0000000000000007,1.1193336,-0.5105786,0.9710323,3.091589,6.5205283,-0.36758816
101,1.0100000000000007,1.1193336,-0.5105786,0.9710323,2.941469,7.044956,-0.09666943
102,1.0200000000000007,1.1193336,-0.5105786,0.9710323,2.941469,7.044956,-0.09666943
103,1.0300000000000007,1.0621351,-0.59491277,0.78632635,3.395189,7.6060357,0.12782355
104,1.0400000000000007,0.9587145,-0.6377811,0.67321,3.919617,7.695986,0.1956296
105,1.0500000000000007,0.86822134,-0.68156415,0.58320475,4.438394,7.7031636,0.28084528
106,1.0600000000000007,0.755166,-0.781509,0.3420931,5.656154,7.296327,0.6009387
107,1.0700000000000007,0.6864425,-0.76943517,-0.011098208,6.509533,6.595512,0.9456194
108,1.0800000000000007,0.6864425,-0.76943517,-0.011098208,6.509533,6.595512,0.9456194
109,1.0900000000000007,0.699553,-0.5789362,-0.81151074,6.6333857,5.485875,1.1184943
110,1.1000000000000008,0.73479897,-0.18964522,-1.3597745,4.89242,4.904637,0.27198774
111,1.1100000000000008,0.57668,-0.08030956,-1.4543532,3.6157115,4.886922,-0.4908302
112,1.1200000000000008,0.33014122,-0.06695513,-1.5247232,3.6157115,4.886922,-0.4908302
113,1.1300000000000008,0.33014122,-0.06695513,-1.5247232,2.6230555,4.8371363,-0.97524637
114,1.1400000000000008,0.17781526,-0.15976542,-1.5889342,1.7076738,4.786893,-1.2841915
115,1.1500000000000008,0.03091644,-0.26501545,-1.6061913,0.9440922,4.76368,-1.3855951
116,1.1600000000000008,-0.22312276,-0.39233997,-1.7704082,0.26435193,4.575381,-1.1664472
117,1.1700000000000008,-0.22312276,-0.39233997,-1.7704082,0.018784106,4.413196,-0.84803367
118,1.1800000000000008,-0.22147635,-0.35965514,-2.057315,-0.2134974,3.881285,0.1815797
119,1.1900000000000008,-0.22147635,-0.35965514,-2.057315,-0.2134974,3.881285,0.1815797
120,1.2000000000000008,-0.18995011,-0.19598705,-2.2895238,-0.31031954,2.0387628,0.9262244
121,1.2100000000000009,-0.16915621,-0.08085837,-2.2912314,-0.39003745,0.87017757,1.003957
122,1.2200000000000009,-0.077809416,0.031709168,-2.177627,-0.39003745,0.87017757,1.003957
123,1.2300000000000009,-0.094212815,0.11598238,-2.0029216,-0.51923543,-1.9066632,0.75884736
124,1.2400000000000009,-0.06591848,0.17909582,-1.841144,-0.6046039,-2.6653578,0.6452264
125,1.2500000000000009,-0.032745812,0.2394042,-1.6349125,-0.9618073,-3.6541958,0.39019018
126,1.260000000000001,-0.005305188,0.26044202,-1.5130761,-1.2263119,-3.8806741,0.25488353
127,1.270000000000001,-0.004451479,0.27556485,-1.2121439,-1.7916678,-3.9261837,-0.007941248
128,1.280000000000001,-0.031160356,0.2608079,-1.0669525,-2.126269,-3.7869065,-0.14156802
129,1.290000000000001,-0.08707825,0.22275689,-0.9588974,-2.6902506,-3.3328807,-0.24236079
130,1.300000000000001,-0.079029,0.18318142,-0.8618186,-2.7655396,-3.2443054,-0.26893342
131,1.310000000000001,-0.08110229,0.1911697,-0.801998,-2.7655396,-3.2443054,-0.26893342
132,1.320000000000001,-0.10372557,0.21800053,-0.74797046,-2.7065911,-3.494302,-0.3726278
133,1.330000000000001,-0.112750486,0.2066584,-0.7659593,-2.648559,-3.8114936,-0.44929138
134,1.340000000000001,-0.11128698,0.1642169,-0.787363,-2.6392434,-4.190994,-0.4990769
135,1.350000000000001,-0.05469831,0.09695688,-0.75480014,-2.721252,-4.687169,-0.50243664
136,1.360000000000001,0.004573438,0.022928167,-0.69089395,-3.0017917,-5.3317847,-0.2874121
137,1.370000000000001,0.09598121,-0.11909231,-0.4806378,-3.1841352,-5.5121427,-0.08475755
138,1.380000000000001,0.17574196,-0.20153615,-0.36185038,-3.3328807,-5.5859046,0.10415252
139,1.390000000000001,0.27300373,-0.27952853,-0.24641682,-3.5115588,-5.6477547,0.3651447
140,1.400000000000001,0.34550798,-0.32800692,-0.15641156,-3.6396878,-5.7152553,0.58352906
141,1.410000000000001,0.43752554,-0.3637407,-0.07415067,-3.8073704,-5.93929,0.84772825
142,1.420000000000001,0.59381515,-0.3740462,0.051344458,-3.934125,-6.2951193,1.0097603
143,1.430000000000001,0.78108215,-0.35965514,0.22848894,-3.991699,-6.859253,1.0986412
144,1.440000000000001,1.068538,-0.32703125,0.57302123,-3.8223367,-7.798153,1.0204504
145,1.450000000000001,1.2933682,-0.31190842,0.8938326,-3.418402,-8.530733,0.7104363
146,1.460000000000001,1.5025266,-0.34611776,1.059574,-2.7898216,-9.035155,0.37507126
147,1.470000000000001,1.5568591,-0.3708753,0.9999974,-2.525775,-9.08998,0.113926366
148,1.480000000000001,1.5568591,-0.3708753,0.9999974,-2.525775,-9.08998,0.113926366
149,1.490000000000001,1.5568591,-0.3708753,0.9999974,-4.692972,-8.957117,0.20250183
150,1.500000000000001,1.7254665,-0.78407013,0.8596233,-4.692972,-8.957117,0.20250183
151,1.5100000000000011,1.7468092,-0.83931726,1.4993558,-5.000085,-7.900473,0.4335616
152,1.5200000000000011,1.712051,-0.7501657,1.5612496,-5.000085,-7.900473,0.4335616
153,1.5300000000000011,1.818094,-0.7299816,1.4188023,-4.024075,-6.8638344,0.57848936
154,1.5400000000000011,1.818094,-0.7299816,1.4188023,-4.024075,-6.8638344,0.57848936
155,1.5500000000000012,1.7108315,-0.7415067,1.2287912,-3.9958222,-6.2329636,0.37064248
156,1.5600000000000012,1.6620482,-0.74748266,1.2873312,-4.237878,-4.707022,-0.044593163
157,1.5700000000000012,1.6444862,-0.7573003,1.2965391,-3.9779544,-4.380667,-0.09208794
158,1.5800000000000012,1.6658288,-0.7802894,1.2190956,-3.4698672,-4.3018656,-0.13683382
159,1.5900000000000012,1.7149171,-0.80736417,1.2028141,-3.1253393,-4.4744353,-0.18417588
160,1.6000000000000012,1.7661396,-0.79248524,1.188545,-2.309376,-5.1518846,-0.36575556
161,1.6100000000000012,1.7891898,-0.77547204,1.1184189,-1.7828102,-5.8023033,-0.5035057
162,1.6200000000000012,1.7891898,-0.77547204,1.1184189,-1.4138476,-6.2841234,-0.5561928
163,1.6300000000000012,1.7243079,-0.7994369,1.0829899,-1.3283265,-6.5558057,-0.57528234
164,1.6400000000000012,1.6663166,-0.77266705,1.1678121,-1.2443326,-6.536869,-0.5038111
165,1.6500000000000012,1.5716771,-0.71827364,1.2894655,-0.9036224,-6.164394,-0.20723604
166,1.6600000000000013,1.5411875,-0.6857717,1.299527,-0.5511532,-5.8394136,0.071318515
167,1.6700000000000013,1.6133869,-0.66314846,1.2273277,-0.04718934,-5.530621,0.41706824
168,1.6800000000000013,1.6837567,-0.6563188,1.1051865,0.27030787,-5.438686,0.713796
169,1.6900000000000013,1.8160206,-0.50246835,0.9476772,0.22067507,-5.835443,1.069625
170,1.7000000000000013,1.8160206,-0.50246835,0.9476772,0.22067507,-5.835443,1.069625
171,1.7100000000000013,1.9063307,-0.39057156,1.0178642,-0.08811731,-6.027713,1.1479685
172,1.7200000000000013,2.055059,-0.26922303,1.1879352,-0.3724751,-5.8048997,1.0853548
173,1.7300000000000013,2.0407898,-0.23733091,1.2814772,-0.5332854,-5.4754906,0.9239337
174,1.7400000000000013,1.7557122,-0.2089756,1.4000818,-0.7849618,-4.7061057,0.64873886
175,1.7500000000000013,1.5855193,-0.19812131,1.4523408,-1.2768611,-3.3370042,0.0076358155
176,1.7600000000000013,1.3473347,-0.12701961,1.5928369,-1.3510813,-2.844494,-0.096516706
177,1.7700000000000014,1.3197721,-0.11476279,1.6606457,-1.2915218,-2.4486532,-0.103847094
178,1.7800000000000014,1.3197721,-0.11476279,1.6606457,-1.2483032,-2.158034,-0.12675454
179,1.7900000000000014,1.3133084,-0.15708233,1.6981478,-1.2680036,-1.4124732,-0.26083946
180,1.8000000000000014,1.288124,-0.18403512,1.6972332,-1.2848023,-1.0952814,-0.3051272
181,1.8100000000000014,1.0698795,-0.42636633,2.5239887,-0.49861875,1.187522,-0.12232576
182,1.8200000000000014,0.9965825,-0.3273362,1.9402353,-0.08628472,1.5676329,0.09285152
183,1.8300000000000014,0.8868201,-0.2145247,1.4825865,-0.08628472,1.5676329,0.09285152
184,1.8400000000000014,1.0064002,-0.1624485,1.3905079,0.45952338,1.3260357,0.2929099
185,1.8500000000000014,1.200131,-0.23507468,1.460634,1.2414309,1.6534595,0.43478334
186,1.8600000000000014,1.2830627,-0.19263318,1.3269067,1.518611,1.7017179,0.50854534
187,1.8700000000000014,1.375751,-0.15055756,1.1928135,1.7571539,1.9058995,0.52748215
188,1.8800000000000014,1.5363702,-0.115128666,1.1486646,1.8263344,2.1062634,0.3643811
189,1.8900000000000015,1.557103,-0.1253122,1.1275657,1.8231273,2.4382687,-0.3575089
190,1.9000000000000015,1.5200276,-0.12598296,1.1325661,1.8231273,2.4382687,-0.3575089
191,1.9100000000000015,1.4231929,-0.1817789,1.1020765,1.804954,2.6403122,-0.64476824
192,1.9200000000000015,1.3819709,-0.21665898,1.0962225,1.7815884,2.7656925,-0.79213953
193,1.9300000000000015,1.3677628,-0.24946578,1.0770141,1.7386752,2.7982209,-0.83658
194,1.9400000000000015,1.4105701,-0.27458918,1.0504881,1.5792394,2.85946,-0.8746063
195,1.9500000000000015,1.5383214,-0.30483487,1.1115892,0.9799806,3.352123,-1.0761919
196,1.9600000000000015,1.5383214,-0.30483487,1.1115892,0.9799806,3.352123,-1.0761919
197,1.9700000000000015,1.5383214,-0.30483487,1.1115892,0.9799806,3.352123,-1.0761919
198,1.9800000000000015,1.5383214,-0.30483487,1.1115892,0.9799806,3.352123,-1.0761919
199,1.9900000000000015,1.5596641,-0.48606494,1.23245,0.098043874,5.684101,-0.98853266
200,2.0000000000000013,1.5668597,-0.5670453,1.3411758,0.08155051,6.2007403,-0.74113226
201,2.010000000000001,1.5871658,-0.5803387,1.4200219,0.2134974,6.431342,-0.5542075
202,2.020000000000001,1.6572919,-0.62009716,1.498685,0.5375614,6.6339965,-0.31688634
203,2.0300000000000007,1.7033921,-0.6533308,1.5385653,0.89980453,6.6999702,-0.1337795
204,2.0400000000000005,1.7432724,-0.6788201,1.5641156,1.3142766,6.682102,0.024281893
205,2.0500000000000003,1.770591,-0.696626,1.5728966,1.9220876,6.566496,0.14355333
206,2.06,1.8323629,-0.67381984,1.568811,2.325564,6.5493917,0.09605856
207,2.07,1.8688896,-0.6656486,1.4677685,2.4846945,6.6320114,-0.0036651916
208,2.0799999999999996,1.9282223,-0.6415618,1.4207536,2.4572055,6.657362,-0.15806139
209,2.0899999999999994,1.9282223,-0.6415618,1.4207536,2.4103215,6.615365,-0.24984388
210,2.099999999999999,2.0106661,-0.51448125,1.5325894,2.3095288,6.4542494,-0.59605175
211,2.109999999999999,1.9493212,-0.49704117,1.6180212,2.27868,6.3340616,-0.82818055
212,2.1199999999999988,1.7100389,-0.5543006,1.6957698,2.362216,6.7283754,-1.1559098
213,2.1299999999999986,1.7100389,-0.5543006,1.6957698,2.362216,6.7283754,-1.1559098
214,2.1399999999999983,1.6434494,-0.5871684,1.5975323,2.2979224,7.3920803,-1.1039863
215,2.149999999999998,1.6180823,-0.61765796,1.2697083,1.6296358,8.42933,-0.8691085
216,2.159999999999998,1.5364311,-0.6119259,1.2449507,1.4798211,8.878926,-0.7861836
217,2.1699999999999977,1.5100272,-0.60137653,1.2431213,1.8258762,9.08265,-0.7200574
218,2.1799999999999975,1.4609389,-0.60381573,1.1846423,2.0430388,9.030269,-0.72586066
219,2.1899999999999973,1.4609389,-0.60381573,1.1846423,2.6578746,8.637634,-0.602924
220,2.199999999999997,0.86358696,-0.63735425,0.7596175,2.9911017,8.135198,-0.16065755
221,2.209999999999997,0.7969977,-0.5963763,0.68766207,3.1418326,7.738899,0.32635477
222,2.2199999999999966,0.87663656,-0.5580204,0.6436351,3.2400293,7.547393,0.7620544
223,2.2299999999999964,1.051037,-0.49399224,0.66894144,3.4605515,7.5137954,1.0204504
224,2.239999999999996,1.10665,-0.47825962,0.60546213,3.9322922,7.551211,1.1369729
225,2.249999999999996,1.1087842,-0.4732593,0.4797231,4.242001,7.566635,1.171945
226,2.259999999999996,1.0837218,-0.45502654,0.14689882,4.6845727,7.497302,1.1823297
227,2.2699999999999956,1.0380484,-0.4308788,-0.13159303,4.7477975,7.297549,1.1261301
228,2.2799999999999954,0.89236915,-0.32995826,-0.44325754,3.9901717,6.6039114,0.8770498
229,2.289999999999995,0.81852335,-0.17842504,-0.7616298,3.9901717,6.6039114,0.8770498
230,2.299999999999995,0.7843141,-0.12543415,-0.88060015,3.6392298,6.439131,0.7641924
231,2.3099999999999947,0.47075918,-0.0031099375,-1.0387192,1.4749341,6.134003,0.082619525
232,2.3199999999999945,0.47075918,-0.0031099375,-1.0387192,1.4749341,6.134003,0.082619525
233,2.3299999999999943,0.35050824,0.020123126,-1.0173155,0.96959585,6.043748,-0.10247265
234,2.339999999999994,0.18464492,-0.017988855,-1.0340848,0.96959585,6.043748,-0.10247265
235,2.349999999999994,0.094212815,-0.06402813,-1.0763433,0.52320606,5.7088413,-0.19440787
236,2.3599999999999937,-0.1583629,-0.23952618,-1.3598354,0.6592763,4.972443,0.536187
237,2.3699999999999934,-0.1583629,-0.23952618,-1.3598354,1.0422888,4.29087,1.0600039
238,2.3799999999999932,-0.20220692,-0.18714507,-1.493014,1.0422888,4.29087,1.0600039
239,2.389999999999993,-0.098420374,-0.087566085,-1.9429792,1.295187,2.4236078,1.7373008
240,2.399999999999993,0.072870106,0.07976075,-2.2133,1.1672108,1.5231925,1.7560849
241,2.4099999999999926,0.13238578,0.23251356,-2.2608635,0.8565858,0.36865717,1.5019649
242,2.4199999999999924,0.12653178,0.32910457,-2.218727,0.48838675,-0.5520695,1.1633929
243,2.429999999999992,0.093481064,0.3459348,-2.0945125,0.041691553,-1.3074044,0.82359904
244,2.439999999999992,0.093481064,0.3459348,-2.0945125,-0.4213443,-1.900249,0.5514586
245,2.4499999999999917,0.093481064,0.3459348,-2.0945125,-0.4213443,-1.900249,0.5514586
246,2.4599999999999915,0.093481064,0.3459348,-2.0945125,-0.4213443,-1.900249,0.5514586
247,2.4699999999999913,-0.0009146876,0.4119143,-1.1084794,-1.434617,-2.9926288,-0.058490347
248,2.479999999999991,-0.040002335,0.3872177,-0.98286223,-1.5215126,-2.9750664,-0.111635625
249,2.489999999999991,-0.09043211,0.3855103,-0.8127913,-1.4650075,-2.908635,-0.01740966
250,2.4999999999999907,-0.10293283,0.41179234,-0.799071,-1.4650075,-2.908635,-0.01740966
251,2.5099999999999905,-0.10293283,0.41179234,-0.799071,-1.3107641,-3.0699034,0.024587326
252,2.5199999999999902,-0.08018761,0.41673166,-0.83206075,-1.1415545,-3.4179437,0.033292156
253,2.52999999999999,-0.017135147,0.35800868,-0.86431867,-1.1000156,-3.7058141,-0.009315695
254,2.53999999999999,0.022806209,0.33300725,-0.8451103,-1.4133894,-4.227951,-0.18295415
255,2.5499999999999896,0.05725944,0.31977475,-0.77492326,-1.7160732,-4.440074,-0.302531
256,2.5599999999999894,0.084578104,0.27458918,-0.646928,-2.1449006,-4.633413,-0.46960264
257,2.569999999999989,0.0670161,0.18366925,-0.54119015,-2.5896106,-4.697401,-0.5749769
258,2.579999999999989,0.050978586,0.09244442,-0.3945352,-2.5896106,-4.697401,-0.5749769
259,2.5899999999999888,0.044575773,0.0017683958,-0.23507468,-2.9955304,-4.7522264,-0.42562035
260,2.5999999999999885,0.051832296,-0.04469773,-0.14817938,-3.029739,-4.8693595,-0.3005457
261,2.6099999999999883,0.10823802,-0.11433593,0.054942228,-2.8571694,-5.3976054,0.010995574
262,2.619999999999988,0.16348514,-0.1302515,0.14732568,-2.6589437,-5.8085647,0.17058411
263,2.629999999999988,0.24928285,-0.14171559,0.2034265,-2.4010057,-6.5695505,0.41996986
264,2.6399999999999877,0.41831708,-0.13482493,0.20745113,-2.4010057,-6.5695505,0.41996986
265,2.6499999999999875,0.7923023,-0.15738723,0.35715497,-2.807384,-7.19584,0.34895676
266,2.6599999999999873,0.7923023,-0.15738723,0.35715497,-2.9956832,-7.363217,0.28252518
267,2.669999999999987,1.0257305,-0.29568797,0.6950405,-3.796833,-7.4947057,-0.1563815
268,2.679999999999987,1.0257305,-0.29568797,0.6950405,-3.796833,-7.4947057,-0.1563815
269,2.6899999999999866,1.1113453,-0.4228905,0.8358415,-4.1105123,-7.2185946,-0.29764408
270,2.6999999999999864,1.1407983,-0.45795357,0.9335301,-3.9385536,-6.66118,-0.48365256
271,2.709999999999986,1.1708001,-0.53082365,1.247085,-3.6308303,-6.3163466,-0.5467244
272,2.719999999999986,1.1708001,-0.53082365,1.247085,-3.6308303,-6.3163466,-0.5467244
273,2.7299999999999858,1.1624459,-0.5804607,1.1384811,-3.4709363,-6.1236186,-0.49754974
274,2.7399999999999856,1.2048264,-0.68912554,1.0544518,-3.4955237,-6.3406286,-0.20326541
275,2.7499999999999853,1.3692262,-0.73894554,1.0211571,-3.4987307,-6.8184776,0.12660182
276,2.759999999999985,1.5410045,-0.79516834,1.0878685,-3.5705073,-7.1202455,0.24236079
277,2.769999999999985,1.7091851,-0.7530927,1.2591588,-3.550807,-7.3068647,0.24816401
278,2.7799999999999847,1.9013304,-0.6961991,1.4611218,-3.2808046,-7.2189,0.04886922
279,2.7899999999999845,1.920112,-0.72193235,1.4509383,-3.1068606,-6.934848,-0.11026118
280,2.7999999999999843,1.8191304,-0.7648617,1.3373951,-3.010344,-6.1752367,-0.23151793
281,2.809999999999984,1.774006,-0.77608186,1.273245,-3.073874,-5.7665677,-0.16142114
282,2.819999999999984,1.7032092,-0.87877077,1.1451279,-3.2242994,-5.476712,0.037110064
283,2.8299999999999836,1.685891,-0.9257858,1.1026253,-3.3722816,-5.483432,0.22831088
284,2.8399999999999834,1.701075,-0.9320666,1.0994544,-3.4147367,-5.589875,0.2761111
285,2.849999999999983,1.750651,-0.96865404,1.1330539,-3.5129333,-6.353304,0.28848112
286,2.859999999999983,1.9381008,-0.91590714,1.4217902,-3.447418,-7.1611733,0.18829921
287,2.869999999999983,2.049083,-0.87559986,1.6134478,-3.264922,-7.4983706,-0.002443461
288,2.8799999999999826,2.0565834,-0.82614577,1.808825,-2.8102856,-7.38139,-0.38545597
289,2.8899999999999824,1.9939578,-0.8005345,1.8668163,-2.4932466,-7.0683217,-0.53893584
290,2.899999999999982,1.8671212,-0.80285174,1.7488216,-1.8075503,-6.2073073,-0.5748242
291,2.909999999999982,1.7349793,-0.8580378,1.4702077,-1.3889549,-5.3511796,-0.39095375
292,2.9199999999999817,1.7349793,-0.8580378,1.4702077,-1.3889549,-5.3511796,-0.39095375
293,2.9299999999999815,1.45478,-0.7824237,1.2715377,-1.3889549,-5.3511796,-0.39095375
294,2.9399999999999813,1.5126492,-0.84864706,1.326053,-1.4648548,-5.1134005,-0.28725937
295,2.949999999999981,1.6102768,-0.547349,1.7760792,-1.9427042,-5.541006,-0.12217305
296,2.959999999999981,1.6807079,-0.44630653,1.9879818,-1.8003726,-5.1537175,-0.4689918
297,2.9699999999999807,1.6807079,-0.44630653,1.9879818,-1.8003726,-5.1537175,-0.4689918
298,2.9799999999999804,1.5345408,-0.34916672,2.019447,-1.7241671,-3.5451565,-0.9277516
299,2.9899999999999802,1.3517863,-0.40313327,1.9500527,-1.9494237,-2.2617285,-1.159575
300,2.99999999999998,1.0528053,-0.47801572,1.9626147,-2.0636556,-0.42180246,-1.2253957
301,3.00999999999998,0.6231461,-0.7069315,3.2626903,-0.79733187,2.1022928,-0.9072876
302,3.0199999999999796,0.85840374,-0.64851344,2.5022192,-0.033444874,2.341141,-0.31749722
303,3.0299999999999794,0.67540526,-0.39325467,1.6297903,0.15225816,1.4052955,-0.06047566
304,3.039999999999979,0.67540526,-0.39325467,1.6297903,1.0569496,0.32177326,0.41340306
305,3.049999999999979,0.85401326,-0.41667065,1.5710063,1.8770362,0.5653558,0.61086524
306,3.0599999999999787,1.1156749,-0.4235003,1.5381385,1.8770362,0.5653558,0.61086524
307,3.0699999999999785,1.2052532,-0.34733734,1.4025819,2.117259,0.91247994,0.7834347
308,3.0799999999999783,1.3506886,-0.21793956,1.2056192,1.7574593,1.9304869,0.64980793
309,3.089999999999978,1.3322119,-0.17281497,1.173666,1.5447255,2.3182335,0.4877759
310,3.099999999999978,1.355262,-0.15958248,1.1507988,1.1198688,2.983924,0.19730948
311,3.1099999999999777,1.4184973,-0.18738899,1.1815324,0.883922,3.1995595,0.045662176
312,3.1199999999999775,1.4184973,-0.18738899,1.1815324,0.6921103,3.249345,-0.09392053
313,3.1299999999999772,1.4661831,-0.21867129,1.2131195,0.6921103,3.249345,-0.09392053
314,3.139999999999977,1.5521637,-0.33026317,1.3561767,0.37950003,3.2601879,-0.49480084
315,3.149999999999977,1.5764945,-0.4996633,1.5129541,0.25686884,3.7226129,-0.86819226
316,3.1599999999999766,1.519418,-0.5909491,1.5719819,0.21731532,4.1787763,-0.97066486
317,3.1699999999999764,1.4336202,-0.6736979,1.6228385,0.21868975,4.742758,-0.91415983
318,3.179999999999976,1.4455721,-0.78785086,1.7169294,0.3387248,5.462968,-0.5849035
319,3.189999999999976,1.5000875,-0.85072035,1.7635787,0.474795,5.874386,-0.31047225
320,3.1999999999999758,1.6577797,-0.9208464,1.7752866,0.84757555,6.674619,0.2574797
321,3.2099999999999755,1.797666,-0.9595682,1.7527853,1.1919508,7.282888,0.68416905
322,3.2199999999999753,2.0628033,-1.0178642,1.7410772,2.0920608,7.860614,1.2012665
323,3.229999999999975,2.0628033,-1.0178642,1.7410772,2.0920608,7.860614,1.2012665
324,3.239999999999975,2.1537232,-1.0142055,1.6610115,2.5732698,7.845495,1.2802209
325,3.2499999999999747,2.1611626,-0.99829,1.5893,3.0909781,7.6046615,1.2513574
326,3.2599999999999745,2.1168919,-0.95060426,1.5005144,3.4290922,7.400174,1.10139
327,3.2699999999999743,2.0324357,-0.9186512,1.4461819,3.7589593,7.2079043,0.8730792
328,3.279999999999974,1.9259051,-0.8867591,1.404777,4.104709,6.831306,0.66889745
329,3.289999999999974,1.8895614,-0.7901071,1.3730069,4.104709,6.831306,0.66889745
330,3.2999999999999736,1.7868725,-0.7301646,1.2756842,4.1405973,6.451348,0.26816985
331,3.3099999999999734,1.7251008,-0.69558936,1.2420237,3.8197403,6.5967336,0.0759
332,3.319999999999973,1.6849153,-0.64467174,1.2341573,3.5676057,6.820769,-0.04642576
333,3.329999999999973,1.6332661,-0.62393886,1.267513,3.458719,7.0054026,-0.11148291
334,3.3399999999999728,1.5495416,-0.62399983,1.2573905,3.588986,7.318624,-0.16829337
335,3.3499999999999726,1.5495416,-0.62399983,1.2573905,3.588986,7.318624,-0.16829337
336,3.3599999999999723,1.3500787,-0.559179,1.0289625,4.010636,7.1089444,-0.14645495
337,3.369999999999972,1.2026922,-0.550337,0.889991,3.9947534,6.9258375,-0.105374254
338,3.379999999999972,1.0807338,-0.5391778,0.7969977,3.8896844,6.9534793,0.003970624
339,3.3899999999999717,1.0278038,-0.503444,0.65619683,3.7395644,7.060228,0.1872302
340,3.3999999999999715,1.0465854,-0.48893097,0.5723505,3.5746307,7.1104712,0.2667954
341,3.4099999999999713,1.0465854,-0.48893097,0.5723505,3.5746307,7.1104712,0.2667954
342,3.419999999999971,1.0465854,-0.48893097,0.5723505,3.5746307,7.1104712,0.2667954
343,3.429999999999971,0.8591965,-0.42667124,0.30611542,3.6480873,6.764416,0.3042109
344,3.4399999999999706,0.7810212,-0.36630186,0.1733028,3.6679404,6.4580674,0.24923302
345,3.4499999999999704,0.6699781,-0.35544756,0.07817529,3.601356,6.262285,0.15668693
346,3.45999999999997,0.6699781,-0.35544756,0.07817529,3.4984252,6.169892,0.07925977
347,3.46999999999997,0.5618011,-0.35111806,-0.030184686,3.4984252,6.169892,0.07925977
348,3.47999999999997,0.4180122,-0.36739948,-0.2658082,3.120605,6.0321417,0.12034045
349,3.4899999999999696,0.3137988,-0.31617698,-0.35520366,2.9869783,5.9753313,0.22739458
350,3.4999999999999694,0.21830542,-0.22812307,-0.5146032,2.8457158,5.730527,0.40118575
351,3.509999999999969,0.17354672,-0.18055932,-0.6501599,2.6748261,5.3879843,0.5459608
352,3.519999999999969,0.17354672,-0.18055932,-0.6501599,2.6748261,5.3879843,0.5459608
353,3.5299999999999687,0.14567922,-0.075980045,-0.8047421,2.6062565,4.7676506,0.7119634
354,3.5399999999999685,0.14567922,-0.075980045,-0.8047421,2.6062565,4.7676506,0.7119634
355,3.5499999999999683,0.16293633,0.006097917,-1.0721357,3.0115657,3.8486037,0.6974554
356,3.559999999999968,0.17793721,-0.00073175,-1.4008135,2.9607112,3.5149186,0.5981898
357,3.569999999999968,0.18318142,-0.022562291,-1.6729026,2.9607112,3.5149186,0.5981898
358,3.5799999999999677,0.18318142,-0.022562291,-1.6729026,2.2702806,3.1708488,0.35918877
359,3.5899999999999674,0.11604336,-0.010549396,-2.1917744,1.968666,3.07983,0.29764408
360,3.5999999999999672,0.010305479,-0.0030489585,-2.5442338,0.61941737,2.5877779,0.19822577
361,3.609999999999967,0.015915563,0.02268425,-2.58448,-0.18509217,2.1224513,0.1498147
362,3.619999999999967,-0.0069516255,0.09903017,-2.4345934,-1.264033,0.6737844,-0.094531395
363,3.6299999999999666,-0.08744413,0.18299848,-2.0850608,-1.4133894,0.21991149,-0.15714508
364,3.6399999999999664,-0.10598179,0.20171909,-1.8466932,-1.6015359,-1.6783522,-0.26923886
365,3.649999999999966,-0.08659042,0.20123126,-1.5882024,-1.6015359,-1.6783522,-0.26923886
366,3.659999999999966,-0.08122425,0.22769623,-1.4042892,-1.5187637,-2.770121,-0.2041817
367,3.6699999999999657,-0.06793079,0.2795895,-1.200131,-1.4014776,-3.632052,-0.07513642
368,3.6799999999999655,-0.05744238,0.30873755,-1.1000032,-1.3946054,-3.8931968,-0.074067414
369,3.6899999999999653,-0.05079565,0.30953026,-1.0317065,-1.5312865,-3.9393172,-0.10415252
370,3.699999999999965,-0.04988096,0.29611483,-0.9652392,-1.7373008,-3.8734965,-0.13500121
371,3.709999999999965,-0.04988096,0.29611483,-0.9652392,-1.7373008,-3.8734965,-0.13500121
372,3.7199999999999647,-0.05921077,0.2903828,-0.90730906,-2.2527182,-3.7145188,-0.2012801
373,3.7299999999999645,-0.07293109,0.25513685,-0.7773624,-2.389705,-3.7362046,-0.20570888
374,3.7399999999999642,-0.051771317,0.22928166,-0.6881499,-2.584418,-3.9277108,-0.17684549
375,3.749999999999964,-0.03878275,0.21678093,-0.658636,-2.6326766,-4.020868,-0.17180584
376,3.759999999999964,-0.009207855,0.18604743,-0.5760702,-2.761569,-4.459927,-0.18432859
377,3.7699999999999636,0.042929336,0.14275223,-0.5014317,-2.8712194,-4.842634,-0.19074267
378,3.7799999999999634,0.054576356,0.09384694,-0.41252404,-2.9565878,-5.0652947,-0.17821993
379,3.789999999999963,0.15525296,0.017866896,-0.29605386,-3.2452216,-5.508783,-0.10720685
380,3.799999999999963,0.22141537,-0.03731925,-0.14903308,-3.2452216,-5.508783,-0.10720685
381,3.8099999999999627,0.27294275,-0.07036996,-0.06573554,-3.3502905,-5.7560306,-0.039553523
382,3.8199999999999625,0.3233725,-0.110189356,0.031221334,-3.5129333,-6.0278654,0.0571159
383,3.8299999999999623,0.5127738,-0.19354787,0.2534294,-4.0964622,-6.7525043,0.24480425
384,3.839999999999962,0.73528683,-0.29556602,0.39142528,-4.3377542,-7.0580897,0.20906863
385,3.849999999999962,0.73528683,-0.29556602,0.39142528,-4.475657,-7.350847,0.10919216
386,3.8599999999999617,0.9519458,-0.4121582,0.97981334,-4.2789583,-7.646506,-0.051159963
387,3.8699999999999615,0.9519458,-0.4121582,0.97981334,-3.9756637,-7.6471167,-0.17638734
388,3.8799999999999613,1.0120713,-0.4874065,1.2551951,-3.9756637,-7.6471167,-0.17638734
389,3.889999999999961,1.0120713,-0.4874065,1.2551951,-3.9756637,-7.6471167,-0.17638734
390,3.899999999999961,0.9683492,-0.55613,1.036341,-3.0642529,-6.380793,-0.3727805
391,3.9099999999999606,0.9289566,-0.59180284,0.9457259,-3.1238122,-5.1725016,-0.14569137
392,3.9199999999999604,0.9351765,-0.63174415,0.93316424,-3.3844988,-5.286275,-0.042913284
393,3.92999999999996,0.9764594,-0.67503935,1.0218279,-3.6216674,-5.651267,0.13683382
394,3.93999999999996,1.1011618,-0.7421775,1.1232972,-3.6960402,-6.2103615,0.3895793
395,3.9499999999999598,1.2738549,-0.75223905,1.3122716,-3.6293032,-6.739371,0.57925296
396,3.9599999999999596,1.4894162,-0.6184507,1.7162586,-3.1409163,-7.169573,0.5694791
397,3.9699999999999593,1.5256377,-0.55698377,1.8108983,-2.4766004,-6.8899493,0.3388775
398,3.979999999999959,1.4180706,-0.5372875,1.6380224,-1.694082,-6.019924,0.09911288
399,3.989999999999959,1.3191013,-0.6457084,1.159336,-1.4132367,-5.564066,0.071013086
400,3.9999999999999587,1.3100765,-0.7088828,1.0708551,-1.7114917,-5.032308,0.29932398
401,4.009999999999959,1.3100765,-0.7088828,1.0708551,-1.7114917,-5.032308,0.29932398
402,4.019999999999959,1.4017282,-0.7235788,1.0285966,-2.281429,-4.9599204,0.46914452
403,4.0299999999999585,1.402216,-0.7323598,1.0345726,-2.440254,-5.0023756,0.45234573
404,4.039999999999958,1.402216,-0.7323598,1.0345726,-2.440254,-5.0023756,0.45234573
405,4.049999999999958,1.4474626,-0.7247374,1.1893986,-2.9158125,-5.2045717,0.3510948
406,4.059999999999958,1.4921603,-0.708334,1.3436149,-2.859002,-5.23481,0.29901853
407,4.069999999999958,1.4943554,-0.7123586,1.3169061,-2.7004826,-5.2059464,0.1947133
408,4.079999999999957,1.4533165,-0.72485936,1.2883679,-2.569452,-5.272378,0.08445212
409,4.089999999999957,1.4395962,-0.70498013,1.2792209,-2.4527767,-5.4583864,0.05787948
410,4.099999999999957,1.4743543,-0.708212,1.267452,-2.2791383,-5.763666,0.09315695
411,4.109999999999957,1.4743543,-0.708212,1.267452,-2.132225,-5.989534,0.18555032
412,4.119999999999957,1.4743543,-0.708212,1.267452,-2.132225,-5.989534,0.18555032
413,4.129999999999956,1.4802084,-0.6582701,1.3345901,-1.8762726,-6.3001585,0.3915646
414,4.139999999999956,1.5782628,-0.55667883,1.3689214,-1.5781704,-6.537174,0.63300914
415,4.149999999999956,1.6169846,-0.53039676,1.4308761,-1.3862059,-6.552904,0.72356987
416,4.159999999999956,1.8183378,-0.39477912,1.5384434,-1.2148583,-6.3785024,0.7165449
417,4.1699999999999555,1.9053551,-0.26477155,1.6322904,-0.957684,-5.8937807,0.46395215
418,4.179999999999955,1.9053551,-0.26477155,1.6322904,-0.8588765,-5.6016345,0.41706824
419,4.189999999999955,1.8616331,-0.13506886,1.5902756,-0.76923203,-4.31897,-0.03283401
420,4.199999999999955,1.6680242,-0.16116793,1.5686891,-0.9230174,-3.3110423,-0.40622538
421,4.209999999999955,1.3286141,-0.16324124,1.7349182,-1.0609202,-2.3188446,-0.7414377
422,4.2199999999999545,1.3286141,-0.16324124,1.7349182,-0.8266534,-1.9636264,-0.8503244
423,4.229999999999954,1.1051865,-0.11104306,1.8699262,-0.21013765,-1.9727893,-0.68493265
424,4.239999999999954,1.1361028,-0.114823766,1.8398025,0.15439619,-1.892155,-0.4885395
425,4.249999999999954,1.1361028,-0.114823766,1.8398025,0.15439619,-1.892155,-0.4885395
426,4.259999999999954,1.2522682,-0.11238461,1.7837017,0.15439619,-1.892155,-0.4885395
427,4.269999999999953,1.2919656,-0.10146933,1.7431506,0.95462966,0.20647246,-0.35506544
428,4.279999999999953,1.305503,-0.046588086,1.3852638,1.0754282,1.3753631,-0.3370449
429,4.289999999999953,1.3444687,-0.034148335,1.2339745,1.0210613,2.157576,-0.25137106
430,4.299999999999953,1.3444687,-0.034148335,1.2339745,1.0210613,2.157576,-0.25137106
431,4.3099999999999525,1.551554,-0.016281437,1.0823191,0.72387534,2.8600712,-0.20586158
432,4.319999999999952,1.5971054,-0.03945352,1.0703673,0.5410739,3.1089988,-0.27779096
433,4.329999999999952,1.6719878,-0.12445848,1.1522014,0.35811976,3.4859025,-0.48243082
434,4.339999999999952,1.7104046,-0.18781583,1.2361088,0.39293906,3.7140608,-0.66538495
435,4.349999999999952,1.5949712,-0.3769732,1.293795,0.5766568,4.0370555,-0.8686504
436,4.3599999999999515,1.5949712,-0.3769732,1.293795,0.7463246,4.327369,-0.9298896
437,4.369999999999951,1.5949712,-0.3769732,1.293795,0.89568114,4.493067,-0.91751957
438,4.379999999999951,1.6113136,-0.5146032,1.3531888,1.2680036,4.7299294,-0.8145888
439,4.389999999999951,1.6744269,-0.5483247,1.349347,1.8164078,4.980232,-0.6407976
440,4.399999999999951,1.966639,-0.59881544,1.3012345,1.8164078,4.980232,-0.6407976
441,4.40999999999995,1.966639,-0.59881544,1.3012345,1.9323195,5.237253,-0.70234233
442,4.41999999999995,2.0363994,-0.61723113,1.2105584,1.7093537,6.2108197,-0.91324353
443,4.42999999999995,2.029204,-0.64503765,1.2151929,1.485777,6.7842693,-0.9231701
444,4.43999999999995,2.029204,-0.64503765,1.2151929,1.485777,6.7842693,-0.9231701
445,4.4499999999999496,1.8821831,-0.7238227,1.2458653,1.1600331,7.951938,-0.6058256
446,4.459999999999949,1.8584011,-0.72516423,1.3299557,1.1835514,8.183304,-0.32650748
447,4.469999999999949,1.9427352,-0.68540585,1.410753,1.4689782,8.299063,-0.054825157
448,4.479999999999949,1.9835303,-0.652843,1.4521579,1.771051,8.303492,0.0143553335
449,4.489999999999949,1.9863964,-0.6227802,1.3919104,1.771051,8.303492,0.0143553335
450,4.4999999999999485,1.9262099,-0.62875617,1.3177598,3.0257683,7.6214604,-0.1779145
451,4.509999999999948,1.844254,-0.61625546,1.2680618,3.0257683,7.6214604,-0.1779145
452,4.519999999999948,1.7962633,-0.5441781,1.1960454,3.2131512,6.81634,-0.5907067
453,4.529999999999948,1.7294303,-0.51131034,1.0872586,3.2131512,6.81634,-0.5907067
454,4.539999999999948,1.6172894,-0.5219207,1.0463415,2.6681066,7.071529,-0.7101309
455,4.549999999999947,1.483989,-0.5000902,1.1070768,2.288912,7.480503,-0.7118107
456,4.559999999999947,1.3235528,-0.49283364,1.1048815,1.9338466,7.8424406,-0.39736784
457,4.569999999999947,1.3235528,-0.49283364,1.1048815,1.9338466,7.8424406,-0.39736784
458,4.579999999999947,1.3107473,-0.46118546,1.1048815,1.9585867,7.792655,-0.3652974
459,4.589999999999947,1.0192058,-0.50191957,1.1302489,2.2883012,7.440797,-0.36056322
460,4.599999999999946,1.0192058,-0.50191957,1.1302489,2.660929,7.2039337,-0.31306845
461,4.609999999999946,1.0192058,-0.50191957,1.1302489,3.1019738,6.9579077,-0.2078469
462,4.619999999999946,0.9813377,-0.5286284,1.0839046,3.441004,6.7137146,-0.02977968
463,4.629999999999946,0.980484,-0.5672282,0.75004375,3.441004,6.7137146,-0.02977968
464,4.6399999999999455,0.9701786,-0.46027076,0.53911686,3.3825135,6.930724,0.040011674
465,4.649999999999945,0.8971865,-0.42947626,0.40886533,3.3825135,6.930724,0.040011674
466,4.659999999999945,0.71552956,-0.41392657,0.28501663,3.5025487,6.8203106,-0.02855795
467,4.669999999999945,0.6158896,-0.3927668,0.24428254,3.552334,6.691265,0.0041233404
468,4.679999999999945,0.4012429,-0.33032414,0.08104131,3.524998,5.927378,0.2406809
469,4.689999999999944,0.36935082,-0.2769064,0.06835765,3.4019086,5.558263,0.39935315
470,4.699999999999944,0.36935082,-0.2769064,0.06835765,3.3371568,5.289482,0.5235115
471,4.709999999999944,0.41941473,-0.27934557,0.13323948,3.4045048,5.2571063,0.5742133
472,4.719999999999944,0.41051176,-0.27660152,0.09555435,3.5851681,5.301089,0.6180429
473,4.729999999999944,0.40471873,-0.21110988,-0.14799644,3.7653735,5.272836,0.6241516
474,4.739999999999943,0.3925229,-0.19208437,-0.2570272,3.7917933,5.237559,0.56092703
475,4.749999999999943,0.2774552,-0.122751065,-0.7443727,3.7917933,5.237559,0.56092703
476,4.759999999999943,0.24885598,-0.08823685,-1.0238402,3.6425896,5.2216763,0.34101552
477,4.769999999999943,0.05433244,-0.09433477,-1.6163138,2.006845,5.3852353,-0.032070424
478,4.7799999999999425,-0.014939896,-0.117384896,-1.8404123,1.1953106,5.3032265,-0.03191771
479,4.789999999999942,-0.07012604,-0.12958074,-2.0230448,1.1953106,5.3032265,-0.03191771
480,4.799999999999942,-0.08116327,-0.12933682,-2.2400088,0.08017606,4.49719,0.24938573
481,4.809999999999942,-0.08116327,-0.12933682,-2.2400088,0.08017606,4.49719,0.24938573
482,4.819999999999942,-0.028477272,-0.05933273,-2.529355,-0.11988231,3.9687915,0.37995818
483,4.8299999999999415,-0.002561125,0.022989146,-2.5919805,-0.41447207,1.45783,0.6356053
484,4.839999999999941,-0.002561125,0.022989146,-2.5919805,-0.41447207,1.45783,0.6356053
485,4.849999999999941,-0.002561125,0.022989146,-2.5919805,-0.41447207,1.45783,0.6356053
486,4.859999999999941,-0.06671121,0.1694611,-2.3995302,-0.6479753,-1.5331191,0.49464813
487,4.869999999999941,0.033294626,0.31385976,-1.7989464,-1.1974486,-2.9648345,0.4016439
488,4.87999999999994,0.08878566,0.39349857,-1.5444803,-1.3848315,-3.3324227,0.25518894
489,4.88999999999994,0.09817646,0.512347,-1.2802577,-1.5505288,-3.613268,0.046120327
490,4.89999999999994,0.08055348,0.567899,-1.1086012,-1.640784,-3.830278,-0.1516473
491,4.90999999999994,0.07219934,0.57710683,-0.9596901,-1.6635388,-3.9648209,-0.2883284
492,4.9199999999999395,0.03823394,0.5309456,-0.6982724,-1.5931365,-4.0709586,-0.45753807
493,4.929999999999939,0.027806502,0.5202133,-0.67631996,-1.5745052,-4.076915,-0.47815478
494,4.939999999999939,-0.19421865,0.42868355,-0.5428975,-1.40667,-4.056298,-0.51144695
495,4.949999999999939,-0.19421865,0.42868355,-0.5428975,-1.3912456,-4.118301,-0.35323283
496,4.959999999999939,-0.17568098,0.4220978,-0.49588257,-1.7719674,-4.13739,-0.15012014
497,4.9699999999999385,-0.099152125,0.41837808,-0.29428545,-1.7719674,-4.13739,-0.15012014
498,4.979999999999938,-0.07445556,0.40996295,-0.22037871,-1.7832683,-4.0886736,-0.16249016
499,4.989999999999938,-0.10146933,0.31306705,-0.14293517,-1.5818355,-3.8201985,-0.19181168
500,4.999999999999938,-0.18049833,0.23836756,-0.19104773,-1.5818355,-3.8201985,-0.19181168
501,5.009999999999938,-0.24690464,0.15531394,-0.27843088,-1.948202,-3.62014,0.3996586
502,5.019999999999937,-0.2239155,0.005427146,-0.39325467,-2.1157317,-3.6172385,0.5539021
503,5.029999999999937,-0.08140719,-0.09281029,-0.30392018,-2.1157317,-3.6172385,0.5539021
504,5.039999999999937,-0.08140719,-0.09281029,-0.30392018,-2.7209466,-3.6508362,1.0274754
505,5.049999999999937,0.1276294,-0.13122717,-0.22434235,-3.011871,-3.7513235,1.2400564
506,5.0599999999999365,0.5041757,-0.12494631,0.093664,-3.334408,-4.468632,1.2030991
507,5.069999999999936,0.5979617,-0.08890763,0.20281671,-3.1345022,-5.053688,0.8837693
508,5.079999999999936,0.6885158,-0.0512225,0.2373919,-3.00057,-5.6856284,0.5887214
509,5.089999999999936,0.7921194,-0.04756375,0.26275924,-3.0656273,-6.38232,0.26939157
510,5.099999999999936,0.88035625,-0.15208204,0.3204455,-3.5169039,-7.1083336,-0.14156802
511,5.1099999999999355,0.97938645,-0.34136137,0.5279576,-4.139223,-7.3630643,-0.44776422
512,5.119999999999935,1.0324383,-0.4220978,0.6337565,-4.47978,-7.276169,-0.55665094
513,5.129999999999935,1.1108575,-0.68504,0.9974363,-4.8488955,-6.701192,-0.589485
514,5.139999999999935,0.994997,-0.83041435,1.3119059,-4.765054,-6.2390723,-0.45142943
515,5.149999999999935,0.994997,-0.83041435,1.3119059,-4.4037275,-5.9264617,-0.23640485
516,5.159999999999934,1.0604887,-0.7827286,1.1667753,-3.7345247,-6.0316834,0.053297993
517,5.169999999999934,1.0989056,-0.7920584,1.0809777,-3.615864,-6.2199826,0.111177474
518,5.179999999999934,1.507527,-0.957251,1.0661598,-4.000862,-7.122078,0.09285152
519,5.189999999999934,1.5791775,-0.99328965,1.2417798,-4.209472,-7.184539,0.021991149
520,5.199999999999934,1.5841168,-1.0337799,1.3539205,-4.195881,-7.0550356,0.05100725
521,5.209999999999933,1.5990567,-1.0563421,1.4372181,-4.195881,-7.0550356,0.05100725
522,5.219999999999933,1.6992456,-1.030304,1.5580788,-3.48239,-7.0162454,0.118966006
523,5.229999999999933,1.7782135,-1.0266452,1.5419192,-3.256828,-7.0002103,0.06154467
524,5.239999999999933,1.7782135,-1.0266452,1.5419192,-3.256828,-7.0002103,0.06154467
525,5.2499999999999325,1.8223624,-1.0865878,1.1488476,-3.0217977,-6.753879,-0.22785273
526,5.259999999999932,1.8480958,-1.1318344,1.1409202,-3.3434181,-6.8363457,-0.205098
527,5.269999999999932,1.8697432,-1.1628727,1.2872093,-3.6468656,-6.8441343,-0.060170226
528,5.279999999999932,1.8455956,-1.1498232,1.4554508,-3.6453383,-6.7218084,0.1459968
529,5.289999999999932,1.8981595,-1.1031132,1.6332661,-3.3912184,-6.5710773,0.27305678
530,5.299999999999931,1.9676758,-1.0324383,1.8036419,-2.708271,-6.191119,0.093462385
531,5.309999999999931,1.779799,-0.9937775,1.7530291,-2.067168,-5.7236547,-0.18692477
532,5.319999999999931,1.779799,-0.9937775,1.7530291,-2.067168,-5.7236547,-0.18692477
533,5.329999999999931,1.779799,-0.9937775,1.7530291,-2.067168,-5.7236547,-0.18692477
534,5.339999999999931,1.4227049,-0.59655917,1.691928,-0.20937407,-6.3945374,1.20371
535,5.34999999999993,1.4227049,-0.59655917,1.691928,-0.20937407,-6.3945374,1.20371
536,5.35999999999993,1.6557063,-0.45844138,1.6077768,-0.124005646,-6.1639357,1.574047
537,5.36999999999993,1.8889517,-0.2950782,1.3361756,-0.61162883,-5.429981,1.4773777
538,5.37999999999993,1.9399912,-0.018598646,1.5847876,-2.0900755,-4.076151,0.516792
539,5.3899999999999295,1.8864515,0.0102445,1.7076607,-2.679255,-3.334866,-0.024587326
540,5.399999999999929,1.8864515,0.0102445,1.7076607,-2.679255,-3.334866,-0.024587326
541,5.409999999999929,1.8300457,-0.055978876,1.832668,-3.1626022,-2.6955955,-0.5366451
542,5.419999999999929,1.2569636,-0.38886416,2.0151784,-3.5517232,-0.8503244,-1.5377005
543,5.429999999999929,0.9000525,-0.47551554,1.9844451,-3.3261611,0.016646078,-1.4541647
544,5.4399999999999284,0.64735484,-0.48478436,2.0117638,-3.0363057,0.35078937,-1.1943942
545,5.449999999999928,0.544361,-0.40154782,2.1700046,-2.2450824,0.17379116,-0.51083606
546,5.459999999999928,0.544361,-0.40154782,2.1700046,-1.306488,-0.119729586,0.03573562
547,5.469999999999928,0.8983451,-0.29952967,2.2960486,-0.21044308,-0.18784106,0.37201694
548,5.479999999999928,1.1757393,-0.22324473,2.148784,1.3548992,0.13973543,0.6093381
549,5.489999999999927,1.3427002,-0.1791568,1.8950496,2.039679,0.5908594,0.64965516
550,5.499999999999927,1.5184423,-0.15775311,1.5603349,2.3017402,1.345278,0.49174652
551,5.509999999999927,1.6123502,-0.17397358,1.3353218,2.0772474,2.130698,0.16035213
552,5.519999999999927,1.6416812,-0.22702545,1.311418,1.8020525,2.616794,-0.124769226
553,5.5299999999999265,1.653999,-0.2895291,1.3883737,1.6594155,2.874121,-0.38240165
554,5.539999999999926,1.5843607,-0.39294976,1.4931968,1.8674151,3.004388,-0.6947065
555,5.549999999999926,1.5379556,-0.4224027,1.5199058,2.10214,2.990949,-0.8142834
556,5.559999999999926,1.4989289,-0.48813823,1.4618535,2.5277603,3.058144,-0.9990701
557,5.569999999999926,1.5060635,-0.5374704,1.4084358,2.3878722,3.5515707,-0.9860892
558,5.5799999999999255,1.5985079,-0.626378,1.3315411,2.3878722,3.5515707,-0.9860892
559,5.589999999999925,1.7009529,-0.6871742,1.314284,2.1303926,4.1761804,-0.9108001
560,5.599999999999925,1.8047395,-0.79925394,1.2815992,1.3454307,6.2943554,-0.59421915
561,5.609999999999925,1.8526691,-0.81748676,1.2794039,1.141249,6.8010683,-0.4813618
562,5.619999999999925,1.9531628,-0.825475,1.3223943,0.8436049,7.435452,-0.28389964
563,5.629999999999924,2.002251,-0.84065884,1.349408,0.75487673,7.7584467,-0.19410244
564,5.639999999999924,2.002251,-0.84065884,1.349408,0.75487673,7.7584467,-0.19410244
565,5.649999999999924,2.03707,-0.88127095,1.3970327,0.7509061,8.161465,-0.046578474
566,5.659999999999924,2.0198739,-0.8871249,1.4144728,0.91889405,8.624501,0.3575089
567,5.6699999999999235,1.9668831,-0.8941375,1.4549628,1.2006557,8.764542,0.5850562
568,5.679999999999923,1.9159044,-0.9040772,1.4920993,1.6307048,8.632136,0.7620544
569,5.689999999999923,1.8219966,-0.87639266,1.507405,2.172695,8.302575,0.8929323
570,5.699999999999923,1.8219966,-0.87639266,1.507405,2.6678011,8.070141,0.95081174
571,5.709999999999923,1.7946168,-0.8708435,1.4612439,3.1456506,7.8609195,0.9949468
572,5.7199999999999225,1.7460774,-0.8248042,1.3169061,3.598607,7.563428,1.0100657
573,5.729999999999922,1.6985748,-0.74705577,1.1926916,3.7766743,7.260439,0.9036224
574,5.739999999999922,1.6985748,-0.74705577,1.1926916,3.7766743,7.260439,0.9036224
575,5.749999999999922,1.6004593,-0.66863656,1.0581715,3.6726747,7.180263,0.77854776
576,5.759999999999922,1.0903075,-0.59515667,0.6535747,1.412015,8.093353,0.5342017
577,5.769999999999921,0.8836491,-0.6050353,0.7798626,0.46868637,8.692001,0.79244494
578,5.779999999999921,0.6984554,-0.64997697,0.8754169,0.46868637,8.692001,0.79244494
579,5.789999999999921,0.6984554,-0.64997697,0.8754169,-0.00061086525,9.095783,1.7652478
580,5.799999999999921,0.6984554,-0.64997697,0.8754169,-0.00061086525,9.095783,1.7652478
581,5.809999999999921,0.6984554,-0.64997697,0.8754169,-0.00061086525,9.095783,1.7652478
582,5.81999999999992,0.8074861,-0.66802675,1.1038449,1.6670512,7.7720385,3.186884
583,5.82999999999992,0.886881,-0.5496662,1.0846364,2.6700919,7.2182894,3.325245
584,5.83999999999992,0.8593794,-0.43728164,0.9377987,4.0613375,6.646061,3.2947018
585,5.84999999999992,0.8330364,-0.3509961,0.54369026,4.867832,6.212652,3.1401527
586,5.8599999999999195,0.73961633,-0.22794013,0.2025728,5.0718613,5.4809885,2.7394252
587,5.869999999999919,0.7052241,-0.17141244,0.10110346,4.8565316,5.1838026,2.4494169
588,5.879999999999919,0.77449644,-0.0037197291,-0.1536675,3.8890736,5.112942,1.6765196
589,5.889999999999919,0.74662894,0.046283185,-0.17452239,3.3458617,5.2161784,1.2139419
590,5.899999999999919,0.66680723,0.12128756,-0.18257163,2.9975157,5.280472,0.8040514
591,5.909999999999918,0.57978994,0.12842213,-0.21226847,2.6273315,5.2175527,0.28695396
592,5.919999999999918,0.50063896,0.08244383,-0.2680644,2.6273315,5.2175527,0.28695396
593,5.929999999999918,0.280992,-0.0074394583,-0.37685126,2.4379632,5.2369475,0.18295415
594,5.939999999999918,0.20592664,-0.043783043,-0.456612,2.4225388,5.190675,0.35796702
595,5.949999999999918,0.20592664,-0.043783043,-0.456612,2.392912,5.044525,0.5945246
596,5.959999999999917,0.17098558,0.012561709,-0.75004375,2.4755313,4.5926375,0.8721629
597,5.969999999999917,0.12409261,0.18592548,-1.1429935,2.552653,3.8962512,0.9610438
598,5.979999999999917,0.13134913,0.25995418,-1.3323948,2.44453,3.196047,0.8910997
599,5.989999999999917,0.13134913,0.25995418,-1.3323948,2.44453,3.196047,0.8910997
600,5.9999999999999165,0.05768629,0.3614845,-1.5853364,2.3124304,2.627484,0.77396625
601,6.009999999999916,0.086285524,0.36868006,-1.6708902,1.9813415,1.4361442,0.50640726
602,6.019999999999916,0.13720313,0.30916438,-1.7851651,1.5968018,0.8472701,0.20173825
603,6.029999999999916,0.09457869,0.26824737,-1.8610842,1.2742649,0.5910121,-0.031612277
604,6.039999999999916,-0.010000584,0.25080732,-1.922856,0.8054258,0.23991732,-0.24846944
605,6.0499999999999154,-0.09226148,0.23958716,-1.9254782,0.44257188,-0.13118331,-0.35078937
606,6.059999999999915,-0.14263028,0.23544057,-1.9054769,0.12568553,-0.600786,-0.42302418
607,6.069999999999915,-0.20525588,0.2461729,-1.7902265,-0.19211712,-1.2950343,-0.47112983
608,6.079999999999915,-0.21153674,0.2289158,-1.6858301,-0.4625777,-1.9326249,-0.5129741
609,6.089999999999915,-0.19098675,0.21050009,-1.5338091,-0.65286225,-2.3403776,-0.5369505
610,6.099999999999914,-0.19251123,0.22556195,-1.3917276,-0.86819226,-2.683531,-0.5467244
611,6.109999999999914,-0.21092694,0.23501371,-1.3092227,-0.9859365,-2.8283062,-0.538325
612,6.119999999999914,-0.18787682,0.254588,-1.1820202,-1.2098186,-3.0578387,-0.50946164
613,6.129999999999914,-0.19867012,0.21592724,-1.0549396,-1.6216946,-3.2096386,-0.6740898
614,6.1399999999999135,-0.19867012,0.21592724,-1.0549396,-1.8341229,-3.2672129,-0.7254025
615,6.149999999999913,-0.2300744,0.17202222,-1.0074369,-1.8341229,-3.2672129,-0.7254025
616,6.159999999999913,-0.21537842,0.06829667,-0.85352546,-2.3400722,-3.4778085,-0.6395759
617,6.169999999999913,-0.21537842,0.06829667,-0.85352546,-2.3400722,-3.4778085,-0.6395759
618,6.179999999999913,-0.15354554,0.043600105,-0.63082945,-2.375044,-3.5708127,-0.61498857
619,6.1899999999999125,-0.15354554,0.043600105,-0.63082945,-2.1429152,-4.5906525,-0.42577308
620,6.199999999999912,-0.08232188,-0.033172667,-0.5434463,-2.1429152,-4.5906525,-0.42577308
621,6.209999999999912,-0.021769563,-0.07305304,-0.48143053,-2.1574233,-5.371338,-0.088728175
622,6.219999999999912,0.06866254,-0.13659334,-0.41880494,-2.3218987,-5.636912,0.12660182
623,6.229999999999912,0.11988505,-0.19696271,-0.34056866,-2.5725062,-5.8676662,0.32543847
624,6.239999999999911,0.21702486,-0.26416174,-0.21306121,-2.7435486,-6.039319,0.47311515
625,6.249999999999911,0.29373667,-0.27654052,-0.1243975,-2.7435486,-6.039319,0.47311515
626,6.259999999999911,0.42526874,-0.2084268,0.04323423,-2.7834074,-6.719212,0.64812803
627,6.269999999999911,0.49490693,-0.17232713,0.07219934,-2.8371637,-7.339699,0.6001751
628,6.2799999999999105,0.49490693,-0.17232713,0.07219934,-2.8371637,-7.339699,0.6001751
629,6.28999999999991,0.49490693,-0.17232713,0.07219934,-2.8371637,-7.339699,0.6001751
630,6.29999999999991,0.90194285,-0.2804432,0.38368094,-4.1783185,-9.873415,-0.09514226
631,6.30999999999991,1.2873312,-0.5202133,1.1379932,-4.3811255,-9.484752,-0.5004513
632,6.31999999999991,1.2686106,-0.5697284,1.2422066,-4.3337836,-9.080512,-0.53130007
633,6.3299999999999095,1.1900694,-0.6038767,1.3680676,-4.0672936,-7.7763147,-0.47250426
634,6.339999999999909,1.1900694,-0.6038767,1.3680676,-3.7555995,-6.6000934,-0.41050145
635,6.349999999999909,1.0964055,-0.5978397,1.1711658,-3.7555995,-6.6000934,-0.41050145
636,6.359999999999909,1.0596349,-0.6363786,0.9217611,-3.7012324,-4.9729013,-0.28512135
637,6.369999999999909,1.1769589,-0.7437629,0.9491408,-4.036292,-5.1198144,-0.23732115
638,6.379999999999908,1.2861116,-0.76449585,0.96170247,-4.0005565,-5.320942,-0.22892176
639,6.389999999999908,1.2861116,-0.76449585,0.96170247,-4.0005565,-5.320942,-0.22892176
640,6.399999999999908,1.4009964,-0.80669343,0.95603144,-3.9849794,-5.5686474,-0.24373524
641,6.409999999999908,1.5124663,-0.8743803,1.0632328,-3.9429824,-5.820019,-0.39171734
642,6.419999999999908,1.5144786,-0.9108458,1.0798191,-3.8176024,-5.8546853,-0.44089198
643,6.429999999999907,1.589483,-0.9634099,1.1167725,-3.6254852,-5.9402065,-0.48090366
644,6.439999999999907,1.6563162,-0.9759716,1.1687268,-3.466813,-5.994268,-0.5311473
645,6.449999999999907,1.6563162,-0.9759716,1.1687268,-3.466813,-5.994268,-0.5311473
646,6.459999999999907,1.7575415,-0.9632879,1.2744036,-2.7243063,-6.2169285,-0.6944011
647,6.4699999999999065,1.8430344,-0.96609294,1.1592749,-2.0358613,-6.4177504,-0.8335256
648,6.479999999999906,1.8543766,-1.0377434,0.98780155,-2.0358613,-6.4177504,-0.8335256
649,6.489999999999906,1.8784631,-1.0483538,0.9745081,-2.1084013,-7.6718564,-0.84467393
650,6.499999999999906,1.9452964,-1.0401826,1.1139675,-2.1084013,-7.6718564,-0.84467393
651,6.509999999999906,1.9607853,-0.88974696,1.4816718,-2.1027508,-7.9383464,-0.39584067
652,6.519999999999905,1.963834,-0.816816,1.5694817,-1.864208,-7.438506,-0.16768251
653,6.529999999999905,1.963834,-0.816816,1.5694817,-1.864208,-7.438506,-0.16768251
654,6.539999999999905,1.9425524,-0.7323598,1.50149,-1.421178,-6.221357,-0.22495113
655,6.549999999999905,1.7671152,-0.72193235,1.4416085,-1.3933836,-5.7367883,-0.36987892
656,6.559999999999905,1.7721156,-0.64119595,1.452036,-1.491733,-5.466633,-0.47067168
657,6.569999999999904,1.6935134,-0.6064988,1.5714941,-1.4949399,-5.394551,-0.4343252
658,6.579999999999904,1.7652858,-0.52015233,1.6096671,-1.4949399,-5.394551,-0.4343252
659,6.589999999999904,1.7871774,-0.4999072,1.6480839,-1.3046554,-5.0651417,-0.5128214
660,6.599999999999904,1.7577245,-0.49655336,1.671683,-1.3023647,-4.624708,-0.6356053
661,6.6099999999999035,1.6880252,-0.5128958,1.7296131,-1.421178,-3.7675114,-0.72189003
662,6.619999999999903,1.5375288,-0.51063955,1.8138863,-1.5716035,-2.6273315,-0.787558
663,6.629999999999903,1.3731898,-0.4680151,1.8926104,-1.5997033,-1.6815593,-0.7903069
664,6.639999999999903,1.214705,-0.44563577,2.0354846,-1.4285084,-0.733191,-0.7160868
665,6.649999999999903,1.126773,-0.43423265,2.099269,-1.1594223,-0.27962357,-0.6207918
666,6.659999999999902,1.006705,-0.39746222,2.092744,-0.35002577,0.5119051,-0.33643404
667,6.669999999999902,0.9704225,-0.3825223,1.9586508,0.4072944,1.0493138,-0.053603426
668,6.679999999999902,1.0023146,-0.3902057,1.7899824,0.91446525,1.3860532,0.14752395
669,6.689999999999902,1.097808,-0.40697494,1.5567372,1.2579242,1.6655241,0.32589662
670,6.699999999999902,1.2144611,-0.4007551,1.4413646,1.6418531,2.083356,0.50778174
671,6.709999999999901,1.3648967,-0.37679026,1.3450785,1.6418531,2.083356,0.50778174
672,6.719999999999901,1.4865501,-0.37483895,1.2658665,1.6453656,2.3066273,0.45662177
673,6.729999999999901,1.5999104,-0.34813008,1.1697024,1.278541,2.8212812,0.0852157
674,6.739999999999901,1.6484498,-0.31709167,1.1712879,1.0577132,3.0392072,-0.13118331
675,6.7499999999999005,1.6484498,-0.31709167,1.1712879,1.0577132,3.0392072,-0.13118331
676,6.7599999999999,1.6484498,-0.31709167,1.1712879,1.0577132,3.0392072,-0.13118331
677,6.7699999999999,1.6484498,-0.31709167,1.1712879,0.57986385,3.8919752,-0.80680025
678,6.7799999999999,1.6494255,-0.6246706,1.4552679,0.5887214,4.253149,-0.90010995
679,6.7899999999999,1.6309489,-0.73711616,1.5208205,0.64461553,4.766276,-0.8749117
680,6.7999999999998995,1.6443642,-0.8359024,1.5533223,0.72341716,5.3711853,-0.679893
681,6.809999999999899,1.6610725,-0.86938,1.5592983,0.7510588,5.653558,-0.55863625
682,6.819999999999899,1.793946,-0.92804193,1.5642376,0.86574876,6.746243,-0.03390302
683,6.829999999999899,2.0118248,-0.92907864,1.566006,0.9468411,7.3172493,0.2359467
684,6.839999999999899,2.2553144,-0.8938326,1.6167407,1.4077389,8.140543,0.3578143
685,6.849999999999898,2.698877,-0.7759599,1.7961414,1.4077389,8.140543,0.3578143
686,6.859999999999898,2.698877,-0.7759599,1.7961414,1.7186694,8.263174,0.22953261
687,6.869999999999898,2.6802783,-0.7648617,1.9449306,2.7133107,8.209112,-0.0917825
688,6.879999999999898,2.5542345,-0.8337681,1.9683466,3.4293976,8.156273,-0.15561792
689,6.8899999999998975,2.4074576,-0.9499944,1.8913299,4.4301476,8.266381,-0.077579886
690,6.899999999999897,2.359284,-1.0071929,1.7716888,5.169447,8.390845,0.06856962
691,6.909999999999897,2.2641566,-1.0643305,1.1666535,5.7065506,8.516684,0.22922719
692,6.919999999999897,2.1965916,-0.99963146,0.81577927,5.798944,8.900764,0.46181414
693,6.929999999999897,2.078597,-0.9079188,0.61271864,5.798944,8.900764,0.46181414
694,6.9399999999998965,2.078597,-0.9079188,0.61271864,4.6528077,8.882591,0.41798455
695,6.949999999999896,1.8679749,-0.62936604,0.49801686,4.0391936,8.795544,0.31047225
696,6.959999999999896,1.5839338,-0.50795645,0.6121089,3.4136677,8.520349,0.16691893
697,6.969999999999896,1.390447,-0.44264776,0.6678439,3.2673655,8.336172,0.08002335
698,6.979999999999896,1.2158636,-0.47161287,0.6483915,3.182608,8.114581,-0.00290161
699,6.989999999999895,1.0969542,-0.5186888,0.62540233,3.1007519,7.9261293,-0.00015271631
700,6.999999999999895,1.0004852,-0.52289635,0.56893563,2.990949,7.7731075,0.1160644
701,7.009999999999895,0.9237734,-0.5187498,0.48722354,2.763249,7.590153,0.32696563
702,7.019999999999895,0.8743803,-0.4776498,0.48228425,2.6067147,7.452556,0.46120325
703,7.0299999999998946,0.89078367,-0.4230125,0.46179524,2.6398542,7.2807503,0.47678033
704,7.039999999999894,0.83663416,-0.35666716,0.43222034,2.7808113,6.8639874,0.39003745
705,7.049999999999894,0.61899954,-0.31416467,0.31959182,2.874121,6.5715356,0.3135266
706,7.059999999999894,0.49167505,-0.3358123,0.30568856,2.9066496,5.75374,0.20570888
707,7.069999999999894,0.49167505,-0.3358123,0.30568856,2.9066496,5.75374,0.20570888
708,7.0799999999998935,0.43728164,-0.38618106,0.21318316,3.0266845,5.814521,0.34697145
709,7.089999999999893,0.43728164,-0.38618106,0.21318316,3.2246048,6.0310726,0.571159
710,7.099999999999893,0.5454587,-0.36038688,-0.14665489,3.4335208,6.2378507,0.8223773
711,7.109999999999893,0.5454587,-0.36038688,-0.14665489,3.6674821,6.3531513,1.0827587
712,7.119999999999893,0.56661844,-0.31733558,-0.29026082,4.0113993,6.0990314,1.0419834
713,7.129999999999892,0.4841746,-0.06067427,-0.9350546,4.0656137,5.7328176,0.84314674
714,7.139999999999892,0.3623992,0.064820856,-1.2170832,3.9438987,5.1665454,0.61468315
715,7.149999999999892,0.26830834,0.11439692,-1.5436267,3.4303138,4.357149,0.2759584
716,7.159999999999892,0.124336526,0.10640865,-1.7643102,2.5954137,3.8644862,-0.017256944
717,7.169999999999892,0.054454394,0.1326297,-1.814496,1.7980819,3.6419785,-0.15592335
718,7.179999999999891,0.0029879792,0.14994776,-1.7947998,0.8576548,3.3819027,-0.30757064
719,7.189999999999891,-0.04183171,0.12598296,-1.7310767,0.8576548,3.3819027,-0.30757064
720,7.199999999999891,-0.07634591,0.08165111,-1.665585,-0.11484267,2.7800477,-0.37965274
721,7.209999999999891,-0.15360652,0.08415125,-1.642047,-0.3631594,2.0291417,-0.2950479
722,7.2199999999998905,-0.17452239,0.08055348,-1.6433276,-0.37522396,1.6274977,-0.22006421
723,7.22999999999989,-0.21245141,0.11988505,-1.6279609,-0.3454443,1.1859949,-0.1226312
724,7.23999999999989,-0.21245141,0.11988505,-1.6279609,-0.1553125,-0.4334089,0.076052725
725,7.24999999999989,-0.21245141,0.11988505,-1.6279609,-0.1553125,-0.4334089,0.076052725
726,7.25999999999989,-0.15647253,0.2728208,-1.6117404,-0.117744274,-1.0384709,0.08246681
727,7.269999999999889,-0.15647253,0.2728208,-1.6117404,-0.117744274,-1.0384709,0.08246681
728,7.279999999999889,-0.07067485,0.31764048,-1.4910626,-0.47769663,-2.8086057,-0.12660182
729,7.289999999999889,-0.06286953,0.3340439,-1.4015452,-1.0337367,-3.2311716,-0.41829
730,7.299999999999889,-0.07585809,0.33782458,-1.2735499,-1.2606732,-3.258508,-0.551764
731,7.309999999999889,-0.12384869,0.24306297,-1.0984178,-1.7107282,-3.1725287,-0.77640975
732,7.319999999999888,-0.16238752,0.20507295,-1.0184131,-2.0405953,-3.0552425,-0.8755226
733,7.329999999999888,-0.1598264,0.19738956,-0.97926444,-2.1876612,-3.0243938,-0.9034697
734,7.339999999999888,-0.14104481,0.19287711,-0.90206486,-2.332589,-3.2658384,-0.93401295
735,7.349999999999888,-0.13525179,0.20720722,-0.8577939,-2.303573,-3.5341609,-0.9437868
736,7.3599999999998875,-0.105615914,0.21928109,-0.80163217,-2.303573,-3.5341609,-0.9437868
737,7.369999999999887,-0.07219934,0.19568215,-0.7683375,-2.0969477,-4.6682324,-1.0601566
738,7.379999999999887,-0.046527103,0.14677685,-0.7236398,-2.0987802,-5.3323956,-1.1430815
739,7.389999999999887,-0.0453685,0.072016396,-0.6481476,-2.2476788,-5.8557544,-1.1895074
740,7.399999999999887,-0.050368793,0.04036821,-0.6161335,-2.3991733,-6.08376,-1.1662945
741,7.4099999999998865,-0.035367917,-0.09500554,-0.47252756,-2.7418687,-6.3884287,-1.01312
742,7.419999999999886,-0.036892395,-0.19909698,-0.2573321,-3.061504,-6.5974975,-0.753655
743,7.429999999999886,0.0074394583,-0.25867364,-0.068052754,-3.1838295,-6.682102,-0.48609602
744,7.439999999999886,0.083602436,-0.313189,0.09957898,-3.1774156,-6.689891,-0.10430524
745,7.449999999999886,0.2786748,-0.33989787,0.20659742,-3.121216,-6.6856146,0.13698652
746,7.459999999999885,0.2786748,-0.33989787,0.20659742,-3.0653217,-6.813591,0.78984874
747,7.469999999999885,0.43222034,-0.37008256,0.22117145,-3.0653217,-6.813591,0.78984874
748,7.479999999999885,0.71132195,-0.39362052,0.40410894,-3.1711543,-7.325496,0.9137017
749,7.489999999999885,0.71132195,-0.39362052,0.40410894,-3.1711543,-7.325496,0.9137017
750,7.4999999999998845,0.91688275,-0.4988096,0.7807163,-3.0896037,-7.528914,0.86116725
751,7.509999999999884,0.91688275,-0.4988096,0.7807163,-2.7490463,-7.7085085,0.872621
752,7.519999999999884,1.0453658,-0.5524712,0.82992643,-2.5350907,-7.862141,0.9309586
753,7.529999999999884,1.3551401,-0.6104625,0.84206134,-2.5966353,-8.966738,1.1809553
754,7.539999999999884,1.4880747,-0.6922965,1.0515248,-2.906955,-9.677632,1.3238977
755,7.5499999999998835,1.4998436,-0.71900535,1.3594695,-3.093727,-9.8958645,1.4996742
756,7.559999999999883,1.4309982,-0.68564975,1.7013798,-2.7963884,-9.115942,1.8115209
757,7.569999999999883,1.3444687,-0.6137553,1.7815063,-1.9139935,-7.8404555,2.1482604
758,7.579999999999883,1.264586,-0.526921,1.6749148,-0.82512623,-6.782437,2.2573
759,7.589999999999883,1.1809835,-0.40959707,1.4815499,-0.82512623,-6.782437,2.2573
760,7.599999999999882,1.132627,-0.30544463,1.0782946,0.5673411,-5.670815,1.8956676
761,7.609999999999882,1.1481158,-0.33843437,0.81175464,0.66431594,-5.3739343,1.6846136
762,7.619999999999882,1.2347672,-0.52429885,0.2900779,-0.226631,-5.0685015,1.5639677
763,7.629999999999882,1.3448956,-0.6098527,0.14945993,-1.314582,-4.9360967,1.6397151
764,7.6399999999998816,1.4360595,-0.679003,0.140496,-2.5575402,-4.77773,1.7744108
765,7.649999999999881,1.5353944,-0.7680326,0.3000175,-3.9936843,-4.48146,1.8816177
766,7.659999999999881,1.5927149,-0.8115718,0.44825786,-4.626999,-4.302324,1.87444
767,7.669999999999881,1.873585,-0.9009672,0.8859054,-5.2302284,-4.73894,1.4906639
768,7.679999999999881,1.873585,-0.9009672,0.8859054,-5.2302284,-4.73894,1.4906639
769,7.6899999999998805,2.0007267,-0.91462654,0.95267755,-5.1990743,-5.2749743,1.2533427
770,7.69999999999988,2.344893,-0.8745633,1.2187296,-5.109124,-5.8212404,0.42058071
771,7.70999999999988,2.344893,-0.8745633,1.2187296,-5.109124,-5.8212404,0.42058071
772,7.71999999999988,2.344893,-0.8745633,1.2187296,-5.109124,-5.8212404,0.42058071
773,7.72999999999988,2.344893,-0.8745633,1.2187296,-4.2418485,-4.901277,-0.13927728
774,7.739999999999879,1.9122456,-0.8233407,1.6143625,-3.603036,-4.6421175,-0.1693624
775,7.749999999999879,1.9122456,-0.8233407,1.6143625,-2.7511845,-4.6547933,-0.02687807
776,7.759999999999879,1.6866837,-0.6217436,1.6846715,-1.4054482,-5.0802608,0.41157046
777,7.769999999999879,1.6351563,-0.5815583,1.6909524,-0.95569867,-5.0491066,0.53786683
778,7.779999999999879,1.6351563,-0.5815583,1.6909524,-0.4810564,-4.7030516,0.61407226
779,7.789999999999878,1.727235,-0.37185097,1.718088,-0.18860464,-4.237572,0.48059824
780,7.799999999999878,1.712234,-0.32038453,1.6797321,-0.025809057,-3.7754526,0.31703907
781,7.809999999999878,1.6232654,-0.20153615,1.537041,0.11010846,-2.708271,-0.0290161
782,7.819999999999878,1.5649694,-0.17799819,1.4011793,0.050549097,-1.9168952,-0.2968805
783,7.8299999999998775,1.4744153,-0.20854875,1.3090397,-0.060170226,-1.4016303,-0.4746423
784,7.839999999999877,1.3723363,-0.24348982,1.2548294,-0.23762658,-0.90469146,-0.5132795
785,7.849999999999877,1.2848921,-0.26403978,1.2371453,-0.33658674,-0.66966105,-0.4512767
786,7.859999999999877,1.1848252,-0.24952675,1.2408651,-0.4729624,-0.3016147,-0.24694228
787,7.869999999999877,1.1406153,-0.22196417,1.2576344,-0.5160284,-0.071013086,-0.10751228
788,7.879999999999876,1.1037838,-0.20367043,1.2750744,-0.50335294,0.25396723,0.038026363
789,7.889999999999876,1.2086071,-0.18482786,1.3080641,-0.3915646,0.636827,0.10445796
790,7.899999999999876,1.2914168,-0.12951976,1.2331208,-0.090713486,1.6296358,-0.051923547
791,7.909999999999876,1.3292239,-0.12598296,1.2018384,-0.030390546,1.9595029,-0.12385293
792,7.919999999999876,1.3292239,-0.12598296,1.2018384,-0.030390546,1.9595029,-0.12385293
793,7.929999999999875,1.3989232,-0.1393374,1.1617141,-0.003970624,2.3936756,-0.39461896
794,7.939999999999875,1.4513652,-0.17116854,1.1519574,-0.003970624,2.3936756,-0.39461896
795,7.949999999999875,1.4598414,-0.27611366,1.2449507,0.15241088,2.602744,-0.79320854
796,7.959999999999875,1.3849589,-0.35965514,1.3241626,0.37125334,2.7736337,-0.9430232
797,7.9699999999998745,1.3663602,-0.38435167,1.4012403,0.6348417,2.9448287,-1.0019717
798,7.979999999999874,1.3621526,-0.4115484,1.4439257,1.0607675,3.3089044,-0.999681
799,7.989999999999874,1.3998379,-0.47618634,1.4207536,1.4025466,3.727347,-0.93187493
800,7.999999999999874,1.49277,-0.57527745,1.3507495,1.7556267,4.274071,-0.837649
801,8.009999999999874,1.5580177,-0.61948735,1.2803186,1.9495764,4.651281,-0.77564615
802,8.019999999999873,1.6461936,-0.68455213,1.1792151,2.0295997,5.0437617,-0.7425067
803,8.029999999999873,1.6900986,-0.731811,1.1042107,1.9274325,5.2725306,-0.7464773
804,8.039999999999873,1.7142463,-0.7683985,1.0493295,1.6629279,5.4405184,-0.77824235
805,8.049999999999873,1.6965624,-0.81382793,1.0424389,1.1385001,5.6811996,-0.84497935
806,8.059999999999873,1.6503402,-0.8024858,1.176776,0.5458081,5.961892,-0.83276206
807,8.069999999999872,1.6469864,-0.7741915,1.3474567,0.120493166,6.5367165,-0.70570207
808,8.079999999999872,1.6607066,-0.7750452,1.4913675,0.017562376,7.2137074,-0.54275376
809,8.089999999999872,1.6607066,-0.7750452,1.4913675,0.44593164,8.225606,0.07971791
810,8.099999999999872,1.7056483,-0.8850516,1.7465653,0.44593164,8.225606,0.07971791
811,8.109999999999872,1.7265642,-0.8982231,1.8585231,1.9367483,8.5006485,0.539394
812,8.119999999999871,1.6900376,-0.9104799,1.7627857,3.0240884,8.266076,0.7246389
813,8.129999999999871,1.6900376,-0.9104799,1.7627857,3.0240884,8.266076,0.7246389
814,8.139999999999871,1.5625302,-0.8874908,1.4299005,3.7910297,7.858476,0.8156578
815,8.14999999999987,1.5625302,-0.8874908,1.4299005,4.6018004,7.169267,0.8932377
816,8.15999999999987,1.5444194,-0.8353536,1.3057469,4.6018004,7.169267,0.8932377
817,8.16999999999987,1.6000324,-0.541556,1.0278649,4.644714,6.5698557,0.6366743
818,8.17999999999987,1.5850315,-0.447831,0.963227,4.395328,6.6717176,0.42424592
819,8.18999999999987,1.510149,-0.3427639,0.87931955,3.9721513,6.7857966,0.14584407
820,8.19999999999987,1.510149,-0.3427639,0.87931955,3.9721513,6.7857966,0.14584407
821,8.20999999999987,1.4233147,-0.3079448,0.81803554,2.956435,7.1119986,-0.22525656
822,8.21999999999987,1.0626839,-0.32154313,0.76589835,2.5001187,7.2127914,-0.24816401
823,8.229999999999869,0.9368229,-0.37252176,0.7608371,2.3156374,7.2483745,-0.17730364
824,8.239999999999869,0.8219382,-0.41026786,0.76797163,2.2866213,7.2422657,-0.032986723
825,8.249999999999869,0.7685814,-0.42252466,0.7003457,2.3770294,7.1929383,0.0693332
826,8.259999999999868,0.7685814,-0.42252466,0.7003457,2.6960537,7.0060134,0.24083363
827,8.269999999999868,0.714188,-0.44856274,0.5924126,2.9798007,6.805497,0.36835176
828,8.279999999999868,0.684857,-0.3858152,0.4666126,3.375336,6.34689,0.573297
829,8.289999999999868,0.684857,-0.3858152,0.4666126,3.375336,6.34689,0.573297
830,8.299999999999867,0.602962,-0.37489992,0.36233822,3.9982657,5.8539214,0.46181414
831,8.309999999999867,0.602962,-0.37489992,0.36233822,4.191452,5.7184625,0.49541172
832,8.319999999999867,0.55558115,-0.32398233,0.23989205,4.191452,5.7184625,0.49541172
833,8.329999999999867,0.48082075,-0.20598765,-0.05567398,4.32798,5.4898458,0.49235737
834,8.339999999999867,0.4165487,-0.18598646,-0.22367159,4.32798,5.4898458,0.49235737
835,8.349999999999866,0.19879209,-0.1557408,-0.556191,4.0190353,5.3664513,0.47433686
836,8.359999999999866,0.17196125,-0.08555377,-0.7907169,3.5274413,5.173723,0.5876524
837,8.369999999999866,0.15391143,-0.0070126047,-0.8893202,3.1183143,4.984355,0.63361996
838,8.379999999999866,0.123604774,0.04164877,-1.0052416,2.6528351,4.677548,0.61834836
839,8.389999999999866,0.08963938,0.07335794,-1.089271,2.372906,4.444961,0.6017023
840,8.399999999999865,-0.0629305,0.16379005,-1.1479938,1.8246545,3.9629884,0.5342017
841,8.409999999999865,-0.096591,0.20495099,-1.1668364,1.5725199,3.656181,0.45799622
842,8.419999999999865,-0.11140894,0.2250741,-1.2573905,1.5725199,3.656181,0.45799622
843,8.429999999999865,-0.13372731,0.20269476,-1.3528838,1.1059716,3.0460796,0.18478674
844,8.439999999999864,-0.33995885,0.1381788,-1.609972,0.8045095,2.8377745,0.06627888
845,8.449999999999864,-0.33995885,0.1381788,-1.609972,0.41798455,2.4678955,0.044593163
846,8.459999999999864,-0.36020395,0.110555224,-1.6658899,0.21166481,2.165212,0.09712757
847,8.469999999999864,-0.36020395,0.110555224,-1.6658899,-0.044745877,1.4582881,0.26725355
848,8.479999999999864,-0.30837163,0.09043211,-1.6719269,-0.12629639,0.8025242,0.4063781
849,8.489999999999863,-0.26044202,0.15013072,-1.6746098,-0.13973543,0.24969117,0.4990769
850,8.499999999999863,-0.26044202,0.15013072,-1.6746098,-0.15195273,-0.47769663,0.6047566
851,8.509999999999863,-0.17818113,0.27910164,-1.5881414,-0.18219055,-1.2040154,0.64675355
852,8.519999999999863,-0.15013072,0.3164819,-1.5410655,-0.3370449,-2.1755965,0.5299256
853,8.529999999999863,-0.15013072,0.3164819,-1.5410655,-0.3370449,-2.1755965,0.5299256
854,8.539999999999862,-0.15013072,0.3164819,-1.5410655,-0.5558874,-2.6068676,0.41157046
855,8.549999999999862,-0.07555319,0.3808149,-1.3793488,-1.0348058,-2.9750664,0.23762658
856,8.559999999999862,-0.047258858,0.37026548,-1.2312304,-1.4805846,-3.1538973,0.055741455
857,8.569999999999862,-0.07408969,0.34178823,-1.1093329,-1.7540996,-3.3353243,-0.07742717
858,8.579999999999862,-0.08805392,0.3088595,-1.0062782,-1.9129245,-3.5170567,-0.13026701
859,8.589999999999861,-0.08945644,0.2736745,-0.89279604,-2.0308216,-3.780187,-0.1385137
860,8.599999999999861,-0.08695629,0.24659975,-0.8339511,-2.0774,-3.9526036,-0.12950343
861,8.60999999999986,-0.06780884,0.19391376,-0.7195542,-2.1545217,-4.3203444,-0.05879578
862,8.61999999999986,-0.018110814,0.14970386,-0.6385738,-2.2498167,-4.599052,0.048258353
863,8.62999999999986,0.035489876,0.12098267,-0.57338715,-2.3504567,-4.786282,0.12415836
864,8.63999999999986,0.076102,0.08878566,-0.5170424,-2.5185974,-4.959462,0.18509217
865,8.64999999999986,0.1203119,0.033172667,-0.46911272,-2.6505444,-5.0358205,0.21273382
866,8.65999999999986,0.15415533,-0.05945469,-0.3838029,-2.9636128,-5.1573825,0.30176744
867,8.66999999999986,0.2215983,-0.10610375,-0.32361645,-3.2982142,-5.396078,0.41431937
868,8.67999999999986,0.3175795,-0.16080207,-0.09000525,-3.8744128,-6.147595,0.6621779
869,8.68999999999986,0.41850004,-0.14238635,-0.005914979,-4.0159807,-6.4266076,0.7076874
870,8.699999999999859,0.6521722,-0.20324357,0.3114816,-4.4600797,-7.550142,0.63117653
871,8.709999999999859,0.86767256,-0.30215177,0.66138005,-4.468785,-8.065407,0.48151454
872,8.719999999999859,0.86767256,-0.30215177,0.66138005,-4.468785,-8.065407,0.48151454
873,8.729999999999858,1.0687819,-0.42100018,1.0473782,-4.256051,-8.37313,0.3397938
874,8.739999999999858,1.0687819,-0.42100018,1.0473782,-4.256051,-8.37313,0.3397938
875,8.749999999999858,1.1610433,-0.47380814,0.96901995,-3.4833064,-8.107251,0.22250767
876,8.759999999999858,1.1587261,-0.4735032,0.75553185,-2.947883,-6.203642,0.35460728
877,8.769999999999857,1.1587261,-0.4735032,0.75553185,-3.3646457,-6.1300325,0.38881573
878,8.779999999999857,1.2524511,-0.6346102,0.49435812,-4.097837,-6.3617034,0.3912592
879,8.789999999999857,1.3297727,-0.70741934,0.6036937,-4.8168254,-6.679964,0.36117408
880,8.799999999999857,1.5274062,-0.77906984,0.9691419,-5.3545394,-6.9009447,0.23747386
881,8.809999999999857,1.6094232,-0.8479763,1.1988504,-5.2396965,-6.701497,0.030695979
882,8.819999999999856,1.6530842,-0.84151256,1.314223,-4.982217,-6.4876943,-0.079870634
883,8.829999999999856,1.615765,-0.85248876,1.2998929,-4.547128,-6.0897155,-0.22922719
884,8.839999999999856,1.5800312,-0.97200793,1.0407314,-4.125784,-5.6978455,-0.31505376
885,8.849999999999856,1.6894279,-1.0706112,0.9319446,-3.7727036,-5.5466566,-0.33551773
886,8.859999999999856,1.6894279,-1.0706112,0.9319446,-3.798971,-6.1656156,-0.2780964
887,8.869999999999855,1.8840733,-1.0548787,1.0521346,-3.7626245,-6.419277,-0.2939789
888,8.879999999999855,1.9154776,-0.9843867,1.2338525,-3.7626245,-6.419277,-0.2939789
889,8.889999999999855,1.8855978,-0.9430428,1.2773916,-2.9886582,-6.502355,-0.36209038
890,8.899999999999855,1.8757801,-0.9446892,1.23245,-2.4862216,-6.3856797,-0.34101552
891,8.909999999999854,1.8451686,-0.98005724,1.1984847,-2.180789,-6.3617034,-0.23151793
892,8.919999999999854,1.823521,-0.9386523,1.241109,-1.946064,-6.490443,0.0041233404
893,8.929999999999854,1.823521,-0.9386523,1.241109,-1.946064,-6.490443,0.0041233404
894,8.939999999999854,1.8831587,-0.72278607,1.3587378,-1.2793045,-6.672023,0.6085745
895,8.949999999999854,1.9127334,-0.72278607,1.3587378,-1.1925616,-6.67859,0.6629415
896,8.959999999999853,2.1511621,-0.61918247,1.2916607,-0.6791294,-6.315125,0.7881689
897,8.969999999999853,2.1379297,-0.5616791,1.308369,-0.5685628,-5.9971695,0.72402805
898,8.979999999999853,2.1206725,-0.4417331,1.3578842,-0.52595496,-5.7065506,0.6105598
899,8.989999999999853,1.9990191,-0.34691048,1.3793488,-0.6722572,-5.328272,0.39400807
900,8.999999999999853,1.9990191,-0.34691048,1.3793488,-0.9512699,-5.0118437,0.1498147
901,9.009999999999852,1.7430894,-0.31861615,1.5645425,-1.416902,-4.584391,-0.17287487
902,9.019999999999852,1.7430894,-0.31861615,1.5645425,-1.8478674,-4.0372086,-0.50823987
903,9.029999999999852,1.5847266,-0.34703246,1.6754028,-2.0992384,-3.5191946,-0.7247916
904,9.039999999999852,1.358067,-0.37050945,1.7864457,-2.2583687,-2.829375,-0.81061816
905,9.049999999999851,1.2945268,-0.36337486,1.8524861,-2.2629502,-2.5767822,-0.77854776
906,9.059999999999851,1.1804957,-0.34508112,2.133783,-1.4634804,-1.0600039,-0.37614027
907,9.069999999999851,1.1804957,-0.34508112,2.133783,-1.4634804,-1.0600039,-0.37614027
908,9.07999999999985,1.1456766,-0.26013714,2.1041472,-0.33628133,0.31612277,0.069485925
909,9.08999999999985,1.1456766,-0.26013714,2.1041472,-0.33628133,0.31612277,0.069485925
910,9.09999999999985,1.1559821,-0.22184221,2.0267646,0.031001411,0.74097955,0.17638734
911,9.10999999999985,1.1988504,-0.21361004,1.7732131,0.6782131,1.6424639,0.39584067
912,9.11999999999985,1.299466,-0.19909698,1.5469196,0.9242391,2.0592268,0.5009095
913,9.12999999999985,1.3584329,-0.19568215,1.449048,1.3341297,2.5477662,0.5687156
914,9.13999999999985,1.4066675,-0.19598705,1.3998379,1.4477507,2.6229026,0.52748215
915,9.14999999999985,1.5274062,-0.18513274,1.3584939,1.4477507,2.6229026,0.52748215
916,9.15999999999985,1.5274062,-0.18513274,1.3584939,1.4477507,2.6229026,0.52748215
917,9.169999999999849,1.6436934,-0.17220518,1.3738606,1.8409951,2.538756,-0.1853976
918,9.179999999999849,1.8021173,-0.17677861,1.3245895,1.7792977,2.696512,-0.52396965
919,9.189999999999849,1.8066299,-0.20885365,1.3299557,1.6534595,2.9100094,-0.869414
920,9.199999999999848,1.7663836,-0.31587207,1.3240407,1.4477507,3.3377676,-1.2383766
921,9.209999999999848,1.7199174,-0.46088055,1.3267847,1.269378,3.9332087,-1.4547756
922,9.219999999999848,1.7089411,-0.6866864,1.293917,1.155299,4.589125,-1.4618006
923,9.229999999999848,1.7089411,-0.6866864,1.293917,1.1018482,5.0979757,-1.3516921
924,9.239999999999847,1.721076,-0.7271766,1.2740377,1.1018482,5.0979757,-1.3516921
925,9.249999999999847,1.7321743,-0.7935219,1.226718,0.9737192,6.3820148,-0.83291477
926,9.259999999999847,1.7511997,-0.81919414,1.2359867,0.9466884,6.621321,-0.70570207
927,9.269999999999847,1.890781,-0.82681656,1.3266628,1.0346531,7.3096137,-0.31520647
928,9.279999999999847,1.9756031,-0.8334633,1.3778243,1.2382239,7.6480327,-0.16249016
929,9.289999999999846,2.1584797,-0.8724289,1.489782,2.091908,7.9820232,0.0421497
930,9.299999999999846,2.248241,-0.86748964,1.4822817,2.6949847,7.7966256,0.005192355
931,9.309999999999846,2.2289107,-0.8464518,1.3970938,3.0995302,7.5622063,-0.14782938
932,9.319999999999846,2.1768343,-0.822609,1.3280044,3.3687692,7.2705183,-0.3565926
933,9.329999999999846,2.069572,-0.81919414,1.2309254,3.3944254,7.188815,-0.4466952
934,9.339999999999845,1.946821,-0.8007175,1.1626898,3.2443054,7.300145,-0.47861293
935,9.349999999999845,1.870353,-0.78175294,1.14464,3.1241176,7.467828,-0.46914452
936,9.359999999999845,1.8076055,-0.7452264,1.1079915,2.93872,7.6303177,-0.3840815
937,9.369999999999845,1.7088193,-0.6916867,1.1087842,2.7739391,7.6611667,-0.32528573
938,9.379999999999844,1.6533282,-0.6446108,1.170495,2.69697,7.606952,-0.29016098
939,9.389999999999844,1.6021057,-0.54728806,1.2165344,2.7936394,7.4818773,-0.3231477
940,9.399999999999844,1.5616155,-0.53240913,1.2091559,2.9055805,7.465384,-0.37140608
941,9.409999999999844,1.3852638,-0.5479588,1.1101258,3.1668782,7.595193,-0.40698898
942,9.419999999999844,1.2051923,-0.5666794,0.9457869,3.3609805,7.771122,-0.3013093
943,9.429999999999843,1.0003633,-0.5119811,0.62381685,3.4376442,7.8499236,-0.105374254
944,9.439999999999843,0.99188715,-0.48636985,0.5805827,3.4078646,7.83679,0.18325958
945,9.449999999999843,0.99188715,-0.48636985,0.5805827,3.3695326,7.7648606,0.33857206
946,9.459999999999843,1.03006,-0.36166742,0.49216285,3.1215215,7.126201,0.4363105
947,9.469999999999843,1.0522565,-0.28507763,0.4656369,3.1215215,7.126201,0.4363105
948,9.479999999999842,1.0424999,-0.26519838,0.45606318,3.029128,6.9704304,0.31047225
949,9.489999999999842,0.95292145,-0.2497097,0.4374036,3.1070135,7.0060134,0.12599096
950,9.499999999999842,0.95292145,-0.2497097,0.4374036,3.1070135,7.0060134,0.12599096
951,9.509999999999842,0.5889368,-0.31684774,-0.029818814,3.7847683,7.0385423,0.24388795
952,9.519999999999841,0.5889368,-0.31684774,-0.029818814,3.7847683,7.0385423,0.24388795
953,9.529999999999841,0.49484593,-0.3064203,-0.38563228,3.9500074,6.7412033,0.63529986
954,9.539999999999841,0.5029562,-0.2464778,-0.5524712,3.8997638,6.4799056,0.78893244
955,9.54999999999984,0.45209953,-0.13043444,-0.75132436,3.7633882,6.0043473,0.8339838
956,9.55999999999984,0.35349622,0.0,-0.91468745,3.6294558,5.5028267,0.72509706
957,9.56999999999984,0.3477642,0.059881546,-1.0631719,3.450014,5.086522,0.5581781
958,9.57999999999984,0.32221392,0.09531044,-1.2119609,3.1422908,4.6654835,0.30589077
959,9.58999999999984,0.2736135,0.09317617,-1.3245285,2.9217684,4.4587054,0.15363261
960,9.59999999999984,0.17000991,0.04189269,-1.6114964,2.3623686,4.0996695,-0.05390886
961,9.60999999999984,0.095615335,0.024696562,-1.8181548,1.7994562,3.7591121,-0.14660765
962,9.61999999999984,0.03000175,0.0005488125,-1.9213316,1.3738359,3.386637,-0.18081611
963,9.62999999999984,-0.066772185,-0.016342416,-1.9834695,0.99082345,2.6798658,-0.14844026
964,9.639999999999839,-0.13073933,-0.026586918,-2.01713,0.99082345,2.6798658,-0.14844026
965,9.649999999999839,-0.17641273,-0.005488125,-2.0421922,0.99082345,2.6798658,-0.14844026
966,9.659999999999838,-0.1261659,0.014756958,-2.060974,0.72402805,-0.37782016,0.15225816
967,9.669999999999838,-0.066040434,0.0038416875,-2.0743892,0.5152648,-1.1724031,0.113926366
968,9.679999999999838,-0.08165111,0.0073175007,-2.0238986,0.18203785,-1.7482964,0.039553523
969,9.689999999999838,-0.08378538,0.008963938,-1.9581629,-0.14737125,-2.0506747,-0.0027488936
970,9.699999999999838,-0.1507405,0.018537667,-1.7479068,-0.8698721,-2.5082128,-0.082619525
971,9.709999999999837,-0.2309891,-0.028050419,-1.3909348,-1.7570012,-2.9106202,-0.1366811
972,9.719999999999837,-0.26446667,-0.04049017,-1.2464142,-2.048384,-2.9550607,-0.0954477
973,9.729999999999837,-0.27580878,-0.04750277,-1.1323831,-2.2791383,-2.9735394,-0.0125227375
974,9.739999999999837,-0.21678093,-0.028172374,-1.0004852,-2.4631615,-3.0086641,0.085673854
975,9.749999999999837,-0.16098501,0.01396423,-0.8966377,-2.462245,-3.1441233,0.10934488
976,9.759999999999836,-0.16098501,0.01396423,-0.8966377,-2.2369885,-3.7384953,0.07284568
977,9.769999999999836,-0.13201989,0.10567689,-0.77565503,-2.0761783,-4.250095,0.056505036
978,9.779999999999836,-0.102566965,0.080492504,-0.7818749,-2.0150917,-4.7074804,0.04642576
979,9.789999999999836,-0.0714066,0.05195425,-0.76412994,-2.1120665,-5.148678,0.05009095
980,9.799999999999836,-0.042807378,0.021525647,-0.73034745,-2.2540927,-5.3436966,0.06841691
981,9.809999999999835,-0.011829958,-0.073540874,-0.649916,-2.7090347,-5.524513,0.20754147
982,9.819999999999835,0.03469715,-0.16507061,-0.56594765,-3.239571,-5.480072,0.36117408
983,9.829999999999835,0.065674566,-0.21196358,-0.51344454,-3.6106718,-5.433341,0.49449542
984,9.839999999999835,0.21781757,-0.28208962,-0.33270234,-4.317901,-5.4142513,0.7432703
985,9.849999999999834,0.3506302,-0.27727225,-0.15793604,-4.7386346,-5.6057577,0.87964594
986,9.859999999999834,0.44642848,-0.25861263,0.0035977708,-4.972443,-5.9612813,0.906524
987,9.869999999999834,0.5874123,-0.27080846,0.19763349,-5.0921726,-6.4307313,0.8416196
988,9.879999999999834,0.5874123,-0.27080846,0.19763349,-5.0921726,-6.4307313,0.8416196
989,9.889999999999834,0.954141,-0.415634,0.6592458,-5.0937,-6.9107184,0.6759224
990,9.899999999999833,0.9823744,-0.4410623,0.729006,-4.690529,-7.520515,0.19898935
991,9.909999999999833,1.0301821,-0.55558115,0.7952293,-4.212374,-7.8520617,0.14584407
992,9.919999999999833,1.0301821,-0.55558115,0.7952293,-4.1515927,-7.885659,0.267559
993,9.929999999999833,1.2151929,-0.71101713,0.9096263,-4.045455,-7.807774,0.43676865
994,9.939999999999833,1.2781234,-0.73010355,0.91487044,-4.020257,-7.802582,0.538325
995,9.949999999999832,1.5119784,-0.80852276,0.9235295,-4.086536,-7.934529,0.7110472
996,9.959999999999832,1.7527853,-0.7873021,1.0090222,-4.152051,-8.020355,0.7267769
997,9.969999999999832,1.7527853,-0.7873021,1.0090222,-4.152051,-8.020355,0.7267769
998,9.979999999999832,2.005849,-0.7042484,1.0460976,-3.9913936,-7.486459,0.41248676
999,9.989999999999831,2.0324357,-0.6958943,1.0131688,-3.990019,-7.247458,0.28420505
1000,9.999999999999831,1.9899333,-0.6896134,1.0706112,-3.9526036,-6.340934,-0.18417588
