id,timestamp,acc_x,acc_y,acc_z,gyro_x,gyro_y,gyro_z
0,0,-0.29568797,-0.4867967,-0.8830393,-0.022907447,-0.16890424,-0.078343466
1,0.05,-0.3123963,-0.36331388,-0.79553425,-0.013286319,-0.23335053,0.036957346
2,0.1,-0.3081887,-0.4463675,-0.8734046,-0.063224554,-0.084910266,0.00061086525
3,0.15000000000000002,-0.37605852,-0.3492277,-0.8266336,-0.042455133,-0.06154467,-0.01160644
4,0.2,-0.31477445,-0.39477912,-0.880966,-0.10827587,-0.0154243475,0.08078693
5,0.25,-0.392279,-0.40386504,-0.82267,-0.14446963,0.06612616,0.08750644
6,0.3,-0.32093337,-0.30831066,-0.9478602,-0.13713925,0.118507855,0.01160644
7,0.35,-0.3033104,-0.33483663,-0.8947473,-0.105068825,0.050549097,0.07437284
8,0.39999999999999997,-0.34971553,-0.38855925,-0.8511472,0.01695151,0.20647246,0.1553125
9,0.44999999999999996,-0.33684894,-0.46764925,-0.7711426,0.24969117,0.5036584,0.38789943
10,0.49999999999999994,-0.25660032,-0.25245374,-0.9854234,0.063682705,0.2678644,0.24953845
11,0.5499999999999999,-0.30672523,-0.3293485,-0.84462243,-0.053450707,0.113162786,0.16997325
12,0.6,-0.24239218,-0.35111806,-0.933896,0.16982053,0.42821655,0.11010846
13,0.65,-0.20208496,-0.20263378,-0.90462595,-0.13652839,-0.25625798,-0.007788532
14,0.7000000000000001,-0.40410894,-0.32038453,-0.91395575,-0.099265605,-0.29138273,-0.06246097
15,0.7500000000000001,-0.30215177,-0.31300604,-0.92517596,-0.036957346,-0.322995,-0.19883664
16,0.8000000000000002,-0.4191708,-0.35715497,-0.9418842,-0.17211129,-0.3659083,-0.302531
17,0.8500000000000002,-0.33294627,-0.34965453,-0.89584494,0.025198191,-0.23609942,-0.071776666
18,0.9000000000000002,-0.4334399,-0.39477912,-0.8104741,-0.15851954,-0.016493361,-0.16065755
19,0.9500000000000003,-0.35093513,-0.40776768,-0.7651666,0.12568553,0.25305092,0.11407909
20,1.0000000000000002,-0.3128841,-0.30837163,-0.82693845,0.09056077,0.23839016,0.26068676
21,1.0500000000000003,-0.245868,-0.35538658,-0.8724289,0.19074267,0.36987892,0.35124752
22,1.1000000000000003,-0.29660267,-0.3694118,-0.9112727,0.17302758,0.29886582,0.34040466
23,1.1500000000000004,-0.3141037,-0.4225856,-0.8820636,0.18005253,0.44180828,0.40591997
24,1.2000000000000004,-0.34136137,-0.3120304,-1.0016438,0.014813482,0.52732944,0.27977628
25,1.2500000000000004,-0.26184455,-0.20159712,-0.9242003,-0.09468412,0.23701571,0.099265605
26,1.3000000000000005,-0.27721128,-0.24458744,-1.0714649,-0.06291912,-0.45570546,-0.43111816
27,1.3500000000000005,-0.31806734,-0.3298363,-0.8305972,-0.41065416,-0.6169739,-0.6553057
28,1.4000000000000006,-0.28196767,-0.22976951,-0.8480373,-0.09086621,-0.46929723,-0.45448375
29,1.4500000000000006,-0.30154198,-0.4133778,-0.7748623,-0.052839845,-0.10629055,-0.3089451
30,1.5000000000000007,-0.23989205,-0.39410836,-0.9606048,0.410196,0.24877487,0.06688975
31,1.5500000000000007,-0.24842913,-0.32581168,-0.92938346,0.035277467,-0.072540246,-0.13973543
32,1.6000000000000008,-0.28727287,-0.430208,-0.88218564,0.045814894,-0.17012598,-0.123242065
33,1.6500000000000008,-0.29898086,-0.39313272,-0.7000409,0.022143865,-0.017562376,-0.051923547
34,1.7000000000000008,-0.2952611,-0.44526988,-0.84992766,0.098043874,0.14676037,0.15225816
35,1.7500000000000009,-0.28794363,-0.35575247,-0.9065163,0.1518,0.16417004,0.1572978
36,1.800000000000001,-0.2326965,-0.38526636,-0.95676315,0.070554934,0.15897769,0.22785273
37,1.850000000000001,-0.324958,-0.34672755,-0.91432166,-0.10415252,0.006414085,0.13927728
38,1.900000000000001,-0.30160296,-0.33148277,-0.919139,0.043218717,0.019394971,0.058184914
39,1.950000000000001,-0.26678386,-0.34288585,-0.8825515,-0.114689946,-0.2209805,-0.047036625
40,2.000000000000001,-0.35020337,-0.32715324,-0.8348658,-0.24572055,-0.11224649,-0.20372356
41,2.0500000000000007,-0.28123593,-0.35142294,-0.9493847,0.03191771,-0.16279559,-0.0720821
42,2.1000000000000005,-0.3544719,-0.36172843,-0.82864594,-0.05299256,-0.068264194,-0.118202426
43,2.1500000000000004,-0.2613567,-0.33947104,-0.8952351,-0.0062613687,-0.11178834,-0.088422745
44,2.2,-0.3918521,-0.313189,-0.8247433,0.05390886,-0.005192355,-0.04444045
45,2.25,-0.2883095,-0.3595332,-0.86944103,0.08964448,0.1330159,-0.055741455
46,2.3,-0.28648013,-0.36319193,-0.954141,0.05024367,-0.16264287,-0.048716504
47,2.3499999999999996,-0.29715148,-0.3403857,-0.81956,-0.022449298,-0.09728029,-0.07880162
48,2.3999999999999995,-0.28056514,-0.36672872,-0.8565744,-0.062002823,-0.023060163,-0.105068825
49,2.4499999999999993,-0.28446782,-0.4109996,-0.82681656,-0.025961773,-0.020158553,0.009010263
50,2.499999999999999,-0.2695279,-0.37502187,-0.88267344,-0.017256944,0.039858956,0.10903945
51,2.549999999999999,-0.3041031,-0.34752026,-0.90139407,-0.0364992,-0.046883907,0.1815797
52,2.5999999999999988,-0.32129923,-0.3608747,-0.933591,-0.026725354,-0.06383542,0.1853976
53,2.6499999999999986,-0.3858152,-0.3372148,-0.8755389,-0.087964594,-0.030085113,0.14202617
54,2.6999999999999984,-0.40404797,-0.35465485,-0.9495676,-0.11988231,-0.087964594,0.04046982
55,2.7499999999999982,-0.37599754,-0.29019985,-0.96517825,-0.10094548,-0.05009095,-0.107665
56,2.799999999999998,-0.36727753,-0.33355603,-0.83206075,-0.14477506,-0.043218717,-0.16050485
57,2.849999999999998,-0.35813063,-0.24409962,-0.9236514,-0.04138612,0.06734789,-0.17989981
58,2.8999999999999977,-0.28910223,-0.32825086,-0.85322046,0.1330159,0.08323039,-0.067500606
59,2.9499999999999975,-0.30837163,-0.27385744,-0.86334306,-0.031306844,-0.055741455,-0.088728175
60,2.9999999999999973,-0.35209373,-0.2965417,-0.8601112,-0.04184427,0.0036651916,-0.24572055
61,3.049999999999997,-0.30392018,-0.3518498,-0.8730997,0.2098322,0.12644911,-0.081855945
62,3.099999999999997,-0.30800578,-0.39910865,-0.8720631,0.079870634,0.14263703,-0.06811147
63,3.149999999999997,-0.29239509,-0.38203448,-0.8857834,0.10827587,0.0842994,-0.0346666
64,3.1999999999999966,-0.26763758,-0.40642616,-0.80626655,0.15088372,0.18600847,0.08628472
65,3.2499999999999964,-0.32654345,-0.3017859,-0.8807221,0.09865474,0.093004234,0.1255328
66,3.2999999999999963,-0.2711134,-0.46874684,-0.91468745,0.2302962,0.123242065,0.1947133
67,3.349999999999996,-0.33355603,-0.29837108,-0.8613918,0.1554652,0.12644911,0.20280726
68,3.399999999999996,-0.27465016,-0.3650823,-0.96377575,0.051465396,0.0036651916,0.15134187
69,3.4499999999999957,-0.29751736,-0.39038864,-0.7551051,-0.25350907,-0.16340645,-0.06887506
70,3.4999999999999956,-0.33062905,-0.32361645,-0.9965216,0.028405234,-0.040775254,-0.043218717
71,3.5499999999999954,-0.26739365,-0.37813184,-0.948409,-0.15302174,-0.08597928,-0.18112154
72,3.599999999999995,-0.27550387,-0.4074628,-0.94907975,-0.17027868,-0.13729197,-0.078343466
73,3.649999999999995,-0.34672755,-0.31355488,-0.85401326,-0.116980694,-0.1160644,-0.012064588
74,3.699999999999995,-0.29135844,-0.37990022,-0.84193933,-0.0106901415,-0.09086621,0.014202617
75,3.7499999999999947,-0.34928867,-0.3008712,-0.8468787,-0.029168816,-0.06780604,-0.004276057
76,3.7999999999999945,-0.30495682,-0.3216651,-0.8841979,0.042913284,-0.0125227375,-0.059101213
77,3.8499999999999943,-0.30562758,-0.33831242,-0.904443,0.057421334,-0.16126843,-0.021685716
78,3.899999999999994,-0.31660384,-0.35075217,-0.82010883,0.06811147,-0.11484267,-0.04016439
79,3.949999999999994,-0.34471524,-0.41941473,-0.89456433,0.055741455,0.22922719,-0.051465396
80,3.999999999999994,-0.3340439,-0.32654345,-0.84590304,0.07376198,-0.05131268,-0.025809057
81,4.049999999999994,-0.31014004,-0.43411067,-0.8336462,0.048258353,0.01572978,0.059406646
82,4.099999999999993,-0.26836932,-0.43197644,-0.86541635,-0.105068825,0.028252518,0.062155537
83,4.149999999999993,-0.28507763,-0.29343176,-0.9359693,-0.06765333,-0.06918049,0.07742717
84,4.199999999999993,-0.333678,-0.31696972,-0.88694197,-0.099571034,-0.21945333,0.079107046
85,4.249999999999993,-0.4016088,-0.3875226,-0.87950253,-0.16187929,-0.1591304,-0.026725354
86,4.299999999999993,-0.406792,-0.34727636,-0.9224319,-0.15485434,-0.0870483,-0.078343466
87,4.3499999999999925,-0.38032708,-0.38148567,-0.86517245,-0.09285152,0.16462818,-0.1133155
88,4.399999999999992,-0.33440974,-0.24135554,-0.8586477,-0.055436023,0.18341228,-0.032375857
89,4.449999999999992,-0.34672755,-0.3225798,-0.9449942,0.018478673,0.17150041,-0.08689558
90,4.499999999999992,-0.2783089,-0.28105298,-0.886881,0.053603426,-0.17348573,0.011301007
91,4.549999999999992,-0.30873755,-0.34892282,-0.87559986,0.14065172,-0.2938262,-0.04138612
92,4.599999999999992,-0.35733792,-0.36776537,-0.7311402,0.05375614,-0.172264,-0.004581489
93,4.6499999999999915,-0.37764397,-0.22190319,-0.78724104,0.13790283,0.39568797,-0.07849618
94,4.699999999999991,-0.25684425,-0.6068037,-0.99127734,0.020463986,0.09010262,0.095753126
95,4.749999999999991,-0.2116587,-0.3029445,-0.8625504,0.14752395,0.29718593,0.098043874
96,4.799999999999991,-0.27824792,-0.248795,-1.0168886,0.20433442,-0.25045475,0.10430524
97,4.849999999999991,-0.33465368,-0.45886827,-0.75364155,0.07788532,0.13912456,0.063988134
98,4.899999999999991,-0.24397767,-0.40868238,-0.9326763,0.20616703,0.1498147,0.10522154
99,4.94999999999999,-0.3825223,-0.37124115,-0.8482812,-0.047647487,-0.04596761,-0.022907447
100,4.99999999999999,-0.27080846,-0.41691455,-0.88023424,-0.0070249503,0.044593163,0.04428773
101,5.04999999999999,-0.29556602,-0.3473983,-0.87840486,-0.1020145,-0.12339478,-0.05100725
102,5.09999999999999,-0.2976393,-0.37508285,-0.85273266,-0.1207986,-0.089186326,-0.020616703
103,5.14999999999999,-0.32014063,-0.35928926,-0.89846706,-0.11728613,-0.20891592,-0.03970624
104,5.1999999999999895,-0.3272142,-0.4001453,-0.85419625,-0.16966783,-0.13591751,0.014660766
105,5.249999999999989,-0.38416874,-0.30989614,-0.8622454,-0.12140947,-0.18921551,-0.004428773
106,5.299999999999989,-0.35087416,-0.33160472,-0.86651397,-0.0627664,0.014966198,-0.015882496
107,5.349999999999989,-0.32294568,-0.40624323,-0.9330422,-0.022143865,-0.021380283,-0.011759156
108,5.399999999999989,-0.34136137,-0.29806617,-0.9126143,-0.018478673,-0.13255776,-0.071318515
109,5.449999999999989,-0.36459443,-0.29891986,-0.825597,-0.071013086,-0.14874569,-0.08002335
110,5.4999999999999885,-0.38831535,-0.37160707,-0.7986442,0.16768251,0.07391469,0.07467828
111,5.549999999999988,-0.31959182,-0.36227724,-0.9043211,0.116675265,0.032070424,0.065973446
112,5.599999999999988,-0.37075335,-0.37459502,-0.85108626,0.0154243475,-0.10919216,-0.038026363
113,5.649999999999988,-0.40575537,-0.3231286,-0.84279305,0.037873644,-0.0076358155,-0.032223143
114,5.699999999999988,-0.32995826,-0.37429014,-0.83260953,0.045662176,0.062002823,0.020158553
115,5.749999999999988,-0.3331292,-0.45039213,-0.85559875,0.07192938,0.06352998,0.13164146
116,5.799999999999987,-0.3331292,-0.32654345,-0.83956116,0.08307768,0.046578474,0.123242065
117,5.849999999999987,-0.32154313,-0.3729486,-0.8978573,-0.044745877,-0.026267206,0.09819659
118,5.899999999999987,-0.33782458,-0.3715461,-0.87999034,-0.07544186,-0.16325374,0.081397794
119,5.949999999999987,-0.44697732,-0.32001868,-0.8646846,-0.16920967,-0.18096884,-0.0022907446
120,5.999999999999987,-0.4290494,-0.41051176,-0.8497447,-0.06627888,-0.026572637,-0.0096211275
121,6.0499999999999865,-0.39179114,-0.35727695,-0.89871097,-0.102319926,0.05009095,-0.023518313
122,6.099999999999986,-0.40106,-0.32367742,-0.8748681,-0.08017606,0.038026363,-0.016035212
123,6.149999999999986,-0.3743511,-0.31227434,-0.8659651,-0.030543262,0.12736541,-0.028405234
124,6.199999999999986,-0.36605796,-0.34239805,-0.85187894,0.066737026,0.062002823,-0.03726278
125,6.249999999999986,-0.40179175,-0.2637349,-0.88194174,0.004886922,0.020158553,-0.071776666
126,6.299999999999986,-0.35130098,-0.34849593,-0.8131572,0.04810564,0.12782355,-0.068264194
127,6.349999999999985,-0.32581168,-0.36075276,-0.8688312,0.1788308,0.17989981,-0.07009678
128,6.399999999999985,-0.26891813,-0.3702045,-0.8968816,0.15622878,0.052839845,-0.029321533
129,6.449999999999985,-0.36563107,-0.34434935,-0.846025,0.14431691,0.11759156,0.03756821
130,6.499999999999985,-0.2967856,-0.3358123,-0.9126752,0.129198,0.071013086,-0.036957346
131,6.549999999999985,-0.35544756,-0.36563107,-0.8174257,-0.13576481,-0.113926366,-0.16142114
132,6.5999999999999845,-0.35428897,-0.39971846,-0.8242554,-0.0013744468,0.05177083,-0.09025534
133,6.649999999999984,-0.30044436,-0.41971964,-0.9326154,0.05513059,-0.061239243,0.010842858
134,6.699999999999984,-0.3743511,-0.3448372,-0.8465737,-0.017562376,-0.032375857,0.047036625
135,6.749999999999984,-0.3333731,-0.39441326,-0.8738315,0.009010263,0.02397646,0.043218717
136,6.799999999999984,-0.34288585,-0.34752026,-0.8262678,-0.072540246,-0.005955936,-0.010995574
137,6.849999999999984,-0.31666481,-0.33288527,-0.87639266,-0.11148291,-0.14294247,-0.086437434
138,6.8999999999999835,-0.32922652,-0.3509961,-0.875295,-0.17195857,-0.20570888,-0.123242065
139,6.949999999999983,-0.43258622,-0.44630653,-0.7616298,0.004276057,-0.018784106,0.065515295
140,6.999999999999983,-0.3079448,-0.29215118,-0.94157934,-0.03313944,-0.033750303,-0.010537425
141,7.049999999999983,-0.4136217,-0.3831321,-0.8494398,-0.06734789,-0.19013181,-0.018784106
142,7.099999999999983,-0.36038688,-0.36776537,-0.86761165,0.020158553,0.034972034,0.0065668016
143,7.149999999999983,-0.40587732,-0.3139817,-0.8848077,0.06078109,0.0010690142,0.03268129
144,7.199999999999982,-0.31635994,-0.3960597,-0.81760865,0.27565295,0.15042557,0.15088372
145,7.249999999999982,-0.368802,-0.2836141,-0.9062724,0.11911872,0.006414085,0.085673854
146,7.299999999999982,-0.3945352,-0.3828882,-0.80833983,0.11804971,-0.0888809,-0.019242255
147,7.349999999999982,-0.35313037,-0.3743511,-0.8084618,-0.04795292,-0.049938235,-0.16600263
148,7.399999999999982,-0.37002158,-0.40093803,-0.85755,-0.083383106,-0.0842994,-0.14156802
149,7.4499999999999815,-0.32361645,-0.39825493,-0.87029463,0.012370021,-0.18005253,-0.06352998
150,7.499999999999981,-0.35892338,-0.38947394,-0.8054128,-0.02321288,-0.0580322,0.0067195175
151,7.549999999999981,-0.34758124,-0.42203683,-0.8000467,0.041080687,-0.047800206,0.08903361
152,7.599999999999981,-0.3606308,-0.40612125,-0.81888926,-0.018325957,0.025198191,0.110413894
153,7.649999999999981,-0.3702045,-0.3497765,-0.86938,-0.09941832,-0.11453723,0.12140947
154,7.699999999999981,-0.41026786,-0.40904826,-0.87834394,-0.1479821,-0.16249016,0.1067487
155,7.7499999999999805,-0.4753326,-0.37624148,-0.86864823,-0.10216721,-0.05589417,0.094225965
156,7.79999999999998,-0.42965922,-0.29471233,-0.9086505,-0.08674286,0.096516706,-0.017562376
157,7.84999999999998,-0.40319425,-0.35343525,-0.8852955,-0.09865474,0.07086037,-0.039553523
158,7.89999999999998,-0.41276798,-0.3077009,-0.88102704,-0.04352415,0.094225965,-0.058948494
159,7.94999999999998,-0.36538717,-0.35587442,-0.8102912,0.05009095,0.15225816,-0.029168816
160,7.99999999999998,-0.33819047,-0.33934906,-0.8613918,0.06307184,0.03772093,0.0032070426
161,8.04999999999998,-0.3702045,-0.31879908,-0.79083884,0.14248432,0.058948494,-0.004886922
162,8.09999999999998,-0.36928985,-0.31282312,-0.8893202,0.14859296,-0.043676864,-0.062002823
163,8.14999999999998,-0.36672872,-0.44368443,-0.8243164,0.17715092,0.16172658,0.0290161
164,8.199999999999982,-0.3363001,-0.42411014,-0.85157406,0.13103059,0.20662516,0.08368854
165,8.249999999999982,-0.29983455,-0.41526812,-0.8966377,0.07941248,0.07819075,0.0777326
166,8.299999999999983,-0.3769732,-0.20117027,-0.86541635,-0.034055736,-0.024129177,-0.07544186
167,8.349999999999984,-0.35983807,-0.4816135,-0.8082179,-0.0050396384,-0.025045475,0.0067195175
168,8.399999999999984,-0.3860591,-0.33325115,-0.85413516,0.21181752,0.023060163,0.14126259
169,8.449999999999985,-0.3799612,-0.43337893,-0.9206025,-0.103847094,0.028252518,0.057268616
170,8.499999999999986,-0.34892282,-0.3233725,-0.8729168,-0.07086037,-0.01695151,-0.064751714
171,8.549999999999986,-0.36471638,-0.36861908,-0.822304,-0.095294975,-0.07315111,-0.01450805
172,8.599999999999987,-0.3682532,-0.33148277,-0.7804114,-0.027641652,0.055436023,-0.0010690142
173,8.649999999999988,-0.36916786,-0.3723388,-0.91590714,0.044593163,-0.0025961774,0.058337633
174,8.699999999999989,-0.32056746,-0.33014122,-0.9227367,-0.071013086,-0.11224649,-0.11942416
175,8.74999999999999,-0.3999014,-0.34562993,-0.87901473,-0.15515977,-0.16523905,-0.13194689
176,8.79999999999999,-0.36544815,-0.4109996,-0.8218162,0.17913623,0.1704314,0.08170322
177,8.84999999999999,-0.32056746,-0.3637407,-0.9043211,0.1693624,0.14355333,0.1282817
178,8.899999999999991,-0.34489816,-0.31898203,-0.887064,0.16081028,-0.11301007,0.02275473
179,8.949999999999992,-0.34361762,-0.38069293,-0.83120704,-0.009773844,-0.16905695,-0.045356743
180,8.999999999999993,-0.41112155,-0.34697145,-0.82840204,-0.081855945,-0.2930626,-0.13942999
181,9.049999999999994,-0.42587852,-0.41075566,-0.77516717,0.018936822,-0.19349156,-0.11362094
182,9.099999999999994,-0.44002566,-0.3281289,-0.8201698,-0.03634648,-0.1779145,-0.10781772
183,9.149999999999995,-0.3773391,-0.44911155,-0.83023137,-0.001985312,0.1469131,-0.13103059
184,9.199999999999996,-0.363009,-0.4481359,-0.8505375,0.03634648,-0.23090707,0.100792766
185,9.249999999999996,-0.3518498,-0.32581168,-0.7189444,-0.013286319,0.24113905,0.017715093
186,9.299999999999997,-0.3261166,-0.47704002,-0.96584904,-0.029474247,0.16187929,0.15745051
187,9.349999999999998,-0.38575423,-0.32739717,-0.84059787,-0.04016439,-0.46578476,0.08170322
188,9.399999999999999,-0.40910926,-0.35752088,-0.77858204,-0.16722436,0.022907447,0.026267206
189,9.45,-0.5147861,-0.45289227,-0.97822785,-0.25366178,-0.18402316,-0.016187929
190,9.5,-0.50063896,-0.28843147,-0.7774234,-0.06704246,-0.21700987,-0.04184427
191,9.55,-0.4435015,-0.3918521,-0.7804114,-0.12843442,0.27565295,-0.01985312
192,9.600000000000001,-0.43868414,-0.3949011,-0.9684711,0.023060163,-0.0013744468,0.18906279
193,9.650000000000002,-0.41484126,-0.2734306,-0.69290626,0.28588495,0.24083363,0.17379116
194,9.700000000000003,-0.3842907,-0.3583136,-0.91767544,0.16661349,0.29856038,0.18753563
195,9.750000000000004,-0.4042309,-0.3017249,-0.85815984,0.13439035,0.011301007,-0.02443461
196,9.800000000000004,-0.3506912,-0.27977243,-0.8140109,0.150731,0.20280726,-0.12415836
197,9.850000000000005,-0.34794715,-0.37343642,-0.84059787,0.005192355,0.1591304,-0.11881329
198,9.900000000000006,-0.35806966,-0.41343874,-0.82803607,0.09315695,-0.14538592,-0.094989546
199,9.950000000000006,-0.36398467,-0.34971553,-0.7119318,0.08017606,0.28053987,-0.10415252
