id,timestamp,acc_x,acc_y,acc_z,gyro_x,gyro_y,gyro_z
0,0,-1.9838963,-3.7192414,-1.2485484,-1.1258247,-1.1166617,2.412765
1,0.01,-1.9620047,-3.8413217,-0.6255243,-2.0578523,-1.2423472,3.8166862
2,0.02,-1.9154776,-3.8477855,-0.2994687,-2.1907156,-1.4138476,4.7536006
3,0.03,-1.7349182,-3.7332668,0.10787215,-1.8057177,-1.7198911,6.5312185
4,0.04,-1.7349182,-3.7332668,0.10787215,-1.8057177,-1.7198911,6.5312185
5,0.05,-1.7349182,-3.7332668,0.10787215,-1.8057177,-1.7198911,6.5312185
6,0.060000000000000005,-0.091529734,-3.3613548,0.004268542,-0.5337435,-1.9113973,10.0389595
7,0.07,1.8980986,-2.4145312,-0.8085838,-0.8883508,-1.5899295,10.144181
8,0.08,1.8980986,-2.4145312,-0.8085838,-2.0431914,-0.81153446,9.914801
9,0.09,2.1405518,-2.1943963,-0.86389184,-3.0059152,-0.13454308,9.626931
10,0.09999999999999999,2.4944139,-1.9501748,-0.3117255,-6.4670777,1.6997325,9.433592
11,0.10999999999999999,2.4944139,-1.9501748,-0.3117255,-6.4670777,1.6997325,9.433592
12,0.11999999999999998,3.2248223,-1.6249118,0.6057671,-6.4670777,1.6997325,9.433592
13,0.12999999999999998,4.518617,-1.0154861,1.6599749,-5.6709676,-0.68661255,10.044305
14,0.13999999999999999,4.518617,-1.0154861,1.6599749,-3.4072535,-1.7666223,9.582185
15,0.15,6.976322,0.53106755,2.3053784,-1.5589281,-1.7130189,8.304255
16,0.16,6.708562,1.1950698,1.8287044,-0.2677117,-1.2863295,6.6883636
17,0.17,6.708562,1.1950698,1.8287044,-0.2677117,-1.2863295,6.6883636
18,0.18000000000000002,6.708562,1.1950698,1.8287044,-0.2677117,-1.2863295,6.6883636
19,0.19000000000000003,6.708562,1.1950698,1.8287044,-0.2677117,-1.2863295,6.6883636
20,0.20000000000000004,4.715153,2.0096295,1.1681169,-2.389552,2.4594963,2.700788
21,0.21000000000000005,4.2347593,2.016825,1.4419744,-1.7030923,2.0448713,1.6988163
22,0.22000000000000006,3.4433715,1.9191364,1.3781902,-0.5215262,1.3035865,0.6779077
23,0.23000000000000007,3.4433715,1.9191364,1.3781902,-0.5215262,1.3035865,0.6779077
24,0.24000000000000007,3.4433715,1.9191364,1.3781902,-0.5215262,1.3035865,0.6779077
25,0.25000000000000006,3.4433715,1.9191364,1.3781902,-0.5215262,1.3035865,0.6779077
26,0.26000000000000006,1.2834896,1.823704,0.40599927,0.91813046,0.78801614,-0.78984874
27,0.2700000000000001,0.82669455,1.8099227,0.17257105,0.7538077,1.3878858,-1.3377949
28,0.2800000000000001,0.17775428,1.7532731,0.02786748,0.17562376,1.7450893,-1.5937474
29,0.2900000000000001,-0.0012805625,1.7340647,0.15208204,0.17562376,1.7450893,-1.5937474
30,0.3000000000000001,-0.0012805625,1.7340647,0.15208204,0.16233744,1.4726434,-1.6783522
31,0.3100000000000001,0.3281289,1.7236372,0.66180694,1.0763446,0.61727935,-2.0567832
32,0.3200000000000001,0.5379582,1.6904645,0.8592574,1.7376062,0.5036584,-2.4975226
33,0.3300000000000001,0.64442784,1.5561883,0.86877024,2.3480134,0.52748215,-3.0173688
34,0.34000000000000014,0.6934551,1.4813058,0.8360854,2.3480134,0.52748215,-3.0173688
35,0.35000000000000014,0.8435248,1.185679,0.6209509,2.7339275,0.5170974,-3.4161112
36,0.36000000000000015,1.0807338,0.95615333,0.47752786,3.2236886,0.74021596,-4.7058005
37,0.37000000000000016,1.3654455,0.86925805,0.4794792,3.1161764,0.93294394,-5.013371
38,0.38000000000000017,1.3654455,0.86925805,0.4794792,2.9901853,1.0732902,-5.4218874
39,0.3900000000000002,1.3654455,0.86925805,0.4794792,2.9901853,1.0732902,-5.4218874
40,0.4000000000000002,1.3654455,0.86925805,0.4794792,2.9901853,1.0732902,-5.4218874
41,0.4100000000000002,4.630819,0.9823134,1.7861407,3.6935966,0.29123,-5.7005944
42,0.4200000000000002,6.0878553,0.6775395,1.9584681,4.2514696,0.0070249503,-6.262285
43,0.4300000000000002,7.0729733,0.050429773,1.6652801,5.098129,-0.3118467,-7.540215
44,0.4400000000000002,7.0586433,-0.4974071,1.0509149,5.1185927,-0.74479747,-8.162229
45,0.45000000000000023,6.5370274,-1.6199726,0.19592606,2.706744,-1.1925616,-8.417723
46,0.46000000000000024,6.5370274,-1.6199726,0.19592606,2.706744,-1.1925616,-8.417723
47,0.47000000000000025,5.9876056,-2.2750719,0.15561883,1.0548116,-0.24495697,-8.503092
48,0.48000000000000026,3.8115637,-3.3564155,1.1656168,-0.44119743,1.6727017,-8.663444
49,0.49000000000000027,1.9821279,-3.6583233,1.5598471,-0.33215797,2.6586382,-8.478504
50,0.5000000000000002,0.8351707,-3.8968737,1.2569027,3.9617665,1.0158689,-7.0365567
51,0.5100000000000002,-0.24361177,-4.125424,0.7616298,5.0966015,-0.15241088,-6.2282295
52,0.5200000000000002,-1.2898923,-4.237686,0.0127446465,6.0432897,-1.6326901,-4.480086
53,0.5300000000000002,-1.6999164,-4.1869516,-0.40325522,5.966626,-1.9792033,-3.2888985
54,0.5400000000000003,-2.0420704,-4.1960373,-1.1945819,4.4365616,-1.2049317,-0.75823647
55,0.5500000000000003,-2.2414112,-4.355193,-1.6438764,2.9123,-0.45921794,0.6469063
56,0.5600000000000003,-2.488072,-4.3565345,-1.7438213,1.0763446,-0.0693332,2.1690297
57,0.5700000000000003,-2.488072,-4.3565345,-1.7438213,1.0763446,-0.0693332,2.1690297
58,0.5800000000000003,-2.488072,-4.3565345,-1.7438213,1.0763446,-0.0693332,2.1690297
59,0.5900000000000003,-1.4331324,-4.4122086,-0.33788556,-1.8489364,-1.358717,7.3650494
60,0.6000000000000003,-0.66845363,-4.177744,-0.013110521,-1.4081972,-1.9307923,9.000947
61,0.6100000000000003,0.020367041,-4.0313325,-0.017074168,-1.1662945,-1.9843957,9.597303
62,0.6200000000000003,0.58479017,-3.8216255,-0.14360595,-1.0758864,-1.7461584,10.160827
63,0.6300000000000003,1.7898606,-3.1399393,-0.5161277,-2.6830728,-0.41890085,10.716561
64,0.6400000000000003,1.7898606,-3.1399393,-0.5161277,-2.6830728,-0.41890085,10.716561
65,0.6500000000000004,2.1619554,-2.926817,-0.41758534,-3.9547415,-0.01450805,10.640815
66,0.6600000000000004,2.1619554,-2.926817,-0.41758534,-3.9547415,-0.01450805,10.640815
67,0.6700000000000004,2.9743807,-2.4577043,0.35672814,-5.1573825,0.2611449,10.640661
68,0.6800000000000004,3.31873,-2.2204344,0.7358966,-5.16792,0.16142114,10.900279
69,0.6900000000000004,5.189754,-1.2465972,1.8561449,-3.3802228,-1.2524265,12.028242
70,0.7000000000000004,8.212613,0.7591297,1.4588046,-0.7076874,-0.1797471,9.6674
71,0.7100000000000004,7.948086,1.6605847,1.1502501,-0.55573463,0.8187121,7.517155
72,0.7200000000000004,7.0602894,2.180981,0.8591355,-0.8886562,1.8625281,5.9142447
73,0.7300000000000004,6.0607805,2.3571498,0.5799119,-1.8978056,3.0364585,4.3346996
74,0.7400000000000004,5.1925592,2.4095917,0.65973365,-2.4301746,3.461926,3.0928106
75,0.7500000000000004,4.4616017,2.370809,0.76547146,-2.539825,3.248734,2.2120957
76,0.7600000000000005,4.4616017,2.370809,0.76547146,-2.0546453,2.3081543,1.34314
77,0.7700000000000005,3.2914116,2.2808647,1.2484875,-1.4625641,1.6044376,0.95096445
78,0.7800000000000005,2.8358972,2.2663517,1.2362916,-0.2938262,0.66599584,0.26358834
79,0.7900000000000005,2.8358972,2.2663517,1.2362916,-0.2938262,0.66599584,0.26358834
80,0.8000000000000005,2.8358972,2.2663517,1.2362916,-0.2938262,0.66599584,0.26358834
81,0.8100000000000005,2.8358972,2.2663517,1.2362916,-0.2938262,0.66599584,0.26358834
82,0.8200000000000005,1.645035,2.28867,0.18659624,0.46318856,1.125672,-1.5771013
83,0.8300000000000005,0.80285174,2.2319593,-0.23342825,-0.032986723,1.1742357,-2.0270035
84,0.8400000000000005,0.6896744,2.200982,-0.105493955,-0.24251351,1.0493138,-2.2675319
85,0.8500000000000005,0.34550798,1.8551081,0.7510194,0.2666427,0.4071417,-2.8342621
86,0.8600000000000005,0.34581286,1.718332,0.9495676,0.2666427,0.4071417,-2.8342621
87,0.8700000000000006,0.5936322,1.5294795,1.291112,0.2666427,0.4071417,-2.8342621
88,0.8800000000000006,0.5936322,1.5294795,1.291112,1.6424639,0.40576723,-3.0641
89,0.8900000000000006,0.5936322,1.5294795,1.291112,1.6424639,0.40576723,-3.0641
90,0.9000000000000006,2.1257339,1.0810996,1.1019546,4.1040983,0.9103419,-4.877148
91,0.9100000000000006,2.1257339,1.0810996,1.1019546,4.1040983,0.9103419,-4.877148
92,0.9200000000000006,2.1257339,1.0810996,1.1019546,4.1040983,0.9103419,-4.877148
93,0.9300000000000006,2.1257339,1.0810996,1.1019546,4.1040983,0.9103419,-4.877148
94,0.9400000000000006,3.287814,0.33934906,0.70266294,4.34203,0.91339624,-7.007999
95,0.9500000000000006,4.059017,0.37002158,0.872246,4.253149,0.41218132,-7.064046
96,0.9600000000000006,4.059017,0.37002158,0.872246,4.2717805,0.03359759,-7.2482214
97,0.9700000000000006,4.950045,0.22970851,1.0032902,4.3137774,-0.5549711,-7.5771723
98,0.9800000000000006,6.3973856,-0.46264893,0.71248055,3.9429824,-0.91919947,-7.9841614
99,0.9900000000000007,6.57764,-0.9242613,0.20678036,1.5470163,-0.91553426,-8.439714
100,1.0000000000000007,6.513856,-1.4833792,-0.010122542,1.5470163,-0.91553426,-8.439714
101,1.0100000000000007,5.4158645,-2.8751068,0.46088055,0.14110987,-0.46792278,-8.450404
102,1.0200000000000007,4.0351744,-3.222383,1.1949477,-1.2738068,1.464244,-8.24943
103,1.0300000000000007,3.0037117,-3.3939173,1.5039291,-0.24113905,1.6300939,-7.8424406
104,1.0400000000000007,2.0450583,-3.5528903,1.4850867,1.3561208,1.320996,-7.4188056
105,1.0500000000000007,2.0450583,-3.5528903,1.4850867,1.3561208,1.320996,-7.4188056
106,1.0600000000000007,-0.46502712,-3.925534,0.45722178,4.966945,-1.0154108,-5.7764945
107,1.0700000000000007,-1.4452672,-3.9035203,-0.34813008,5.246416,-1.8803959,-4.260327
108,1.0800000000000007,-2.0170689,-3.8274186,-0.7373601,4.5857654,-2.027309,-2.7505734
109,1.0900000000000007,-2.3801389,-3.7951605,-0.9104799,3.5266778,-1.5100589,-1.0123564
110,1.1000000000000008,-2.3801389,-3.7951605,-0.9104799,3.5266778,-1.5100589,-1.0123564
111,1.1100000000000008,-2.5800896,-3.9719393,-1.2392186,2.3388503,-0.6795876,0.9439395
112,1.1200000000000008,-2.2064703,-4.004746,-1.0971981,-0.23625213,0.07696902,4.993518
113,1.1300000000000008,-1.1243949,-4.001331,-0.6010107,-1.538006,-0.070249505,7.391011
114,1.1400000000000008,-0.2626373,-3.8326018,-0.25336844,-1.7481437,-0.2144137,8.119468
115,1.1500000000000008,0.20397532,-3.6040518,-0.111165024,-1.7481437,-0.2144137,8.119468
116,1.1600000000000008,0.20397532,-3.6040518,-0.111165024,-1.4828753,-0.6925685,8.817992
117,1.1700000000000008,0.6327199,-3.1629894,-0.15903367,-1.4935656,-0.72036284,9.008888
118,1.1800000000000008,0.89560103,-2.9015107,-0.27904066,-1.8924606,-0.63438356,9.451307
119,1.1900000000000008,1.3927032,-2.673205,-0.2646496,-2.3377812,-0.6097962,9.751853
120,1.2000000000000008,1.3927032,-2.673205,-0.2646496,-2.830444,-0.6418667,10.036364
121,1.2100000000000009,1.814496,-2.5957613,-0.1741565,-3.4839172,-0.64675355,10.328204
122,1.2200000000000009,3.2529337,-2.0687792,0.4443552,-4.208556,-0.7509061,10.596985
123,1.2300000000000009,3.2529337,-2.0687792,0.4443552,-4.208556,-0.7509061,10.596985
124,1.2400000000000009,5.6393533,-0.68339354,1.5501515,-3.8455493,-1.0511464,10.69228
125,1.2500000000000009,5.6393533,-0.68339354,1.5501515,-2.6992607,-1.3849843,10.353402
126,1.260000000000001,5.6393533,-0.68339354,1.5501515,-2.6992607,-1.3849843,10.353402
127,1.270000000000001,6.3973246,0.47825962,1.24428,-1.2965615,-0.4063781,8.446128
128,1.280000000000001,5.643134,1.4653904,0.6626606,-2.9275718,2.3490822,6.8230596
129,1.290000000000001,5.9900446,1.6641215,0.85523283,-3.822642,3.2450688,5.799555
130,1.300000000000001,5.6835027,1.847059,1.3362365,-3.8353174,3.3698382,4.4580946
131,1.310000000000001,5.0599294,1.8813293,1.6770492,-3.251483,2.9106202,3.477656
132,1.320000000000001,4.103593,1.8553522,1.9391985,-1.4601207,1.3359623,2.5302038
133,1.330000000000001,3.7827816,1.8119351,1.6251558,0.34300083,0.05757405,1.9301815
134,1.340000000000001,3.7827816,1.8119351,1.6251558,0.34300083,0.05757405,1.9301815
135,1.350000000000001,3.7827816,1.8119351,1.6251558,0.34300083,0.05757405,1.9301815
136,1.360000000000001,2.9495015,1.7965072,0.7232129,1.3385584,0.106595986,0.4596761
137,1.370000000000001,2.0476196,1.6199726,0.15013072,0.52656585,1.4393512,-0.24449882
138,1.380000000000001,1.879378,1.6285096,0.10153031,0.23243423,1.8886427,-0.59941155
139,1.390000000000001,1.1940941,1.6302781,-0.005732042,0.18982637,2.0971005,-1.3393221
140,1.400000000000001,1.1940941,1.6302781,-0.005732042,0.34009922,1.8005253,-1.9353738
141,1.410000000000001,0.4677102,1.50149,-0.013354438,0.8071057,0.559858,-2.6406178
142,1.420000000000001,0.32672638,1.4476454,0.027806502,1.0256428,0.2790127,-2.7751608
143,1.430000000000001,0.19708468,1.3986793,0.058783915,1.2093605,0.20433442,-2.8849638
144,1.440000000000001,0.2821506,1.3928251,0.18543765,1.3924674,0.10995574,-3.0694451
145,1.450000000000001,0.34197116,1.3217235,0.24196534,1.5212072,0.07269296,-3.2507193
146,1.460000000000001,0.47374716,1.1842765,0.3617894,1.5212072,0.07269296,-3.2507193
147,1.470000000000001,0.47374716,1.1842765,0.3617894,1.5212072,0.07269296,-3.2507193
148,1.480000000000001,0.47374716,1.1842765,0.3617894,1.5212072,0.07269296,-3.2507193
149,1.490000000000001,0.47374716,1.1842765,0.3617894,1.5212072,0.07269296,-3.2507193
150,1.500000000000001,1.4509383,0.9233466,0.7720573,2.513863,0.19837849,-4.9490776
151,1.5100000000000011,2.4651437,0.7365064,1.047683,2.920394,0.40973786,-5.6117134
152,1.5200000000000011,2.777784,0.6260121,1.0926247,3.3396003,0.68493265,-6.2157063
153,1.5300000000000011,2.777784,0.6260121,1.0926247,3.3396003,0.68493265,-6.2157063
154,1.5400000000000011,2.777784,0.6260121,1.0926247,3.3396003,0.68493265,-6.2157063
155,1.5500000000000012,3.302266,0.4969192,1.16769,3.3396003,0.68493265,-6.2157063
156,1.5600000000000012,6.209387,-0.4730764,0.85254973,4.8748574,-1.1302534,-7.0328918
157,1.5700000000000012,6.497391,-0.6426595,0.61674327,4.797583,-1.322676,-7.1733904
158,1.5800000000000012,6.6842313,-0.9973143,-0.12793429,1.5900823,-1.5066991,-8.095644
159,1.5900000000000012,6.46367,-1.6235703,-0.32276276,1.5900823,-1.5066991,-8.095644
160,1.6000000000000012,4.867296,-2.646069,0.298554,-1.3852897,0.4027129,-8.3192215
161,1.6100000000000012,4.867296,-2.646069,0.298554,-1.3852897,0.4027129,-8.3192215
162,1.6200000000000012,4.867296,-2.646069,0.298554,-1.3852897,0.4027129,-8.3192215
163,1.6300000000000012,4.867296,-2.646069,0.298554,-1.3852897,0.4027129,-8.3192215
164,1.6400000000000012,1.4906967,-3.1316462,1.3988011,1.0769554,1.55847,-6.7120347
165,1.6500000000000012,0.6223534,-3.1649408,1.1946429,4.223217,-0.43554693,-5.0261993
166,1.6600000000000013,-0.7780942,-3.3064733,0.046405144,4.534758,-0.9242391,-4.2736135
167,1.6700000000000013,-1.3233699,-3.2393353,-0.6016815,4.031863,-1.2191343,-2.7353017
168,1.6800000000000013,-1.6139966,-3.4144068,-0.9845087,2.9588785,-0.87857693,-1.5152513
169,1.6900000000000013,-1.9568214,-3.6786294,-1.2522072,1.7925841,-0.39721513,-0.47861293
170,1.7000000000000013,-2.4078844,-3.9245584,-1.3823367,0.057421334,-0.13347405,1.1548407
171,1.7100000000000013,-2.51411,-4.065908,-1.1989114,-0.89766645,-0.27687466,2.315332
172,1.7200000000000013,-2.3259895,-4.2609806,-0.68247885,-2.032654,-0.77931136,4.7484083
173,1.7300000000000013,-1.7742498,-4.2742734,-0.12854409,-2.124742,-1.0827587,6.2109723
174,1.7400000000000013,-0.59741294,-3.9233387,0.18738899,-1.698969,-1.2643384,7.7753983
175,1.7500000000000013,-0.59741294,-3.9233387,0.18738899,-1.2373075,-1.3941472,8.823643
176,1.7600000000000013,0.025123417,-3.7189975,0.10531103,-0.8556695,-1.486846,9.658237
177,1.7700000000000014,1.539785,-3.0104806,-0.39355955,-1.3005321,-1.1233811,10.461372
178,1.7800000000000014,1.539785,-3.0104806,-0.39355955,-1.3005321,-1.1233811,10.461372
179,1.7900000000000014,2.350198,-2.4491673,-0.46344167,-3.5016322,0.07941248,10.310489
180,1.8000000000000014,2.6452153,-2.2242763,-0.21623214,-3.5016322,0.07941248,10.310489
181,1.8100000000000014,3.2406158,-1.9175508,0.36782634,-5.1369185,0.36147952,10.766347
182,1.8200000000000014,3.2406158,-1.9175508,0.36782634,-4.6179886,-0.5316055,11.194105
183,1.8300000000000014,3.2406158,-1.9175508,0.36782634,-4.6179886,-0.5316055,11.194105
184,1.8400000000000014,7.0008354,-0.09140777,1.9244416,-1.7284433,-0.31535918,9.058368
185,1.8500000000000014,7.0008354,-0.09140777,1.9244416,-1.7284433,-0.31535918,9.058368
186,1.8600000000000014,6.913757,0.81242543,1.5615546,-1.7284433,-0.31535918,9.058368
187,1.8700000000000014,6.913757,0.81242543,1.5615546,-1.7284433,-0.31535918,9.058368
188,1.8800000000000014,5.7469816,1.8311435,0.6889427,-2.34221,2.7594311,4.6572366
189,1.8900000000000015,5.1703625,1.9296249,0.7243715,-2.6166413,2.9431489,3.8008037
190,1.9000000000000015,5.1703625,1.9296249,0.7243715,-2.5789204,2.680782,2.937193
191,1.9100000000000015,4.0320034,1.8503519,1.293856,-1.752267,1.7420349,1.9014708
192,1.9200000000000015,3.5124002,1.8812073,1.4213024,-0.76923203,0.9407325,1.4020884
193,1.9300000000000015,2.634178,1.7879093,1.0720137,1.1959214,-0.35277468,0.7481572
194,1.9400000000000015,2.1887863,1.7778475,0.61741406,1.6154331,-0.27473664,0.54260105
195,1.9500000000000015,2.1887863,1.7778475,0.61741406,1.5830573,0.3031419,0.28680122
196,1.9600000000000015,1.6986356,1.8196794,0.027196707,1.2266175,1.1375839,-0.1777618
197,1.9700000000000015,1.6555235,1.8533399,-0.020915855,1.0865766,1.4144585,-0.46960264
198,1.9800000000000015,0.54149497,1.7857751,-0.10287185,0.9224065,1.7496707,-1.7211128
199,1.9900000000000015,0.54149497,1.7857751,-0.10287185,1.1177307,1.181108,-2.320677
200,2.0000000000000013,0.107750185,1.66217,0.013720313,1.7289014,-0.22800545,-2.7661505
201,2.010000000000001,0.107750185,1.66217,0.013720313,1.7289014,-0.22800545,-2.7661505
202,2.020000000000001,0.09439575,1.621802,0.058418043,1.8148806,-0.3923282,-2.8101327
203,2.0300000000000007,0.35514265,1.4388645,0.26940596,1.8423696,-0.22388211,-2.9123
204,2.0400000000000005,0.35514265,1.4388645,0.26940596,1.8423696,-0.22388211,-2.9123
205,2.0500000000000003,1.1203092,1.3048322,0.45655105,2.012343,0.076358154,-3.6525161
206,2.06,1.4977094,1.079758,0.53283596,2.012343,0.076358154,-3.6525161
207,2.07,1.6752198,0.9101141,0.6243657,2.2719605,0.14614952,-4.5625525
208,2.0799999999999996,1.949443,0.77132547,0.73071337,2.7885997,-0.3036,-5.384472
209,2.0899999999999994,1.949443,0.77132547,0.73071337,2.7885997,-0.3036,-5.384472
210,2.099999999999999,2.3747728,0.6329028,0.82876784,3.0932689,-0.70356405,-5.6500454
211,2.109999999999999,3.2851307,0.44984335,0.9604829,3.5474472,-1.1946996,-6.2018094
212,2.1199999999999988,4.628136,0.33434877,1.1103697,3.6144896,-1.4827226,-6.3836946
213,2.1299999999999986,5.5894117,0.105493955,1.0465244,3.605785,-1.5161675,-6.7470064
214,2.1399999999999983,6.3707986,-0.15970443,0.85224485,3.4090862,-1.5204436,-7.041749
215,2.149999999999998,6.792835,-0.57296026,0.5170424,2.7116308,-1.5633569,-7.531663
216,2.159999999999998,6.896561,-0.84078074,0.2406238,1.6771306,-1.5630515,-7.83679
217,2.1699999999999977,6.896561,-0.84078074,0.2406238,1.6771306,-1.5630515,-7.83679
218,2.1799999999999975,6.896561,-0.84078074,0.2406238,1.6771306,-1.5630515,-7.83679
219,2.1899999999999973,6.896561,-0.84078074,0.2406238,1.6771306,-1.5630515,-7.83679
220,2.199999999999997,3.7194853,-2.8952298,1.8280945,-1.7314975,1.7395915,-8.269436
221,2.209999999999997,1.7218688,-3.1067667,1.7176002,2.108096,1.2186762,-7.27174
222,2.2199999999999966,1.7218688,-3.1067667,1.7176002,4.090201,0.30589077,-6.500675
223,2.2299999999999964,1.7218688,-3.1067667,1.7176002,4.090201,0.30589077,-6.500675
224,2.239999999999996,1.7218688,-3.1067667,1.7176002,4.090201,0.30589077,-6.500675
225,2.249999999999996,1.7218688,-3.1067667,1.7176002,4.090201,0.30589077,-6.500675
226,2.259999999999996,-1.4566704,-3.4805079,-1.0776238,3.4171803,-0.50885075,-2.6455047
227,2.2699999999999956,-1.6750977,-3.544902,-1.2822089,2.0691533,0.12522738,-1.5262468
228,2.2799999999999954,-2.0146906,-3.8563836,-1.5532004,-0.29458976,0.6792821,0.18280143
229,2.289999999999995,-2.166224,-4.016576,-1.3656284,-1.7884607,0.66691214,1.349096
230,2.299999999999995,-2.166224,-4.016576,-1.3656284,-2.8296804,0.3193298,2.6322184
231,2.3099999999999947,-2.166224,-4.016576,-1.3656284,-2.8296804,0.3193298,2.6322184
232,2.3199999999999945,-1.9801155,-4.258785,-0.3715461,-3.2378912,-0.31887165,4.3217187
233,2.3299999999999943,-1.9801155,-4.258785,-0.3715461,-3.2378912,-0.31887165,4.3217187
234,2.339999999999994,-1.9801155,-4.258785,-0.3715461,-3.2378912,-0.31887165,4.3217187
235,2.349999999999994,1.3512374,-2.9573677,-0.63485414,-3.0089695,-0.7516697,5.339115
236,2.3599999999999937,1.7624198,-2.713634,-0.8052909,-0.95233893,-1.7484491,9.768957
237,2.3699999999999934,2.1904936,-2.2838528,-0.8769414,-2.3817637,-1.1600331,9.385487
238,2.3799999999999932,2.1904936,-2.2838528,-0.8769414,-3.5579846,-0.8669705,9.462608
239,2.389999999999993,2.168724,-2.098537,-0.6606483,-3.5579846,-0.8669705,9.462608
240,2.399999999999993,3.2734227,-1.7465044,0.29928577,-4.239252,-1.0940597,10.626307
241,2.4099999999999926,4.010112,-1.410753,0.6724173,-4.0317106,-1.1580478,11.034059
242,2.4199999999999924,6.647156,-0.46508813,0.992253,-3.3334916,-0.59589905,10.925936
243,2.429999999999992,7.7141085,0.27678445,1.3924593,-2.9374983,-0.027183503,9.297827
244,2.439999999999992,7.7141085,0.27678445,1.3924593,-2.9374983,-0.027183503,9.297827
245,2.4499999999999917,6.308356,1.6428398,2.107684,-0.4092797,-0.2275473,6.061616
246,2.4599999999999915,6.1522493,1.7251008,1.7732131,0.44318274,-0.20326541,5.644853
247,2.4699999999999913,6.1522493,1.7251008,1.7732131,0.44318274,-0.20326541,5.644853
248,2.479999999999991,6.1522493,1.7251008,1.7732131,0.44318274,-0.20326541,5.644853
249,2.489999999999991,4.291897,2.186774,0.09012721,-0.33307427,2.0975585,2.5879307
250,2.4999999999999907,3.5330722,2.0662792,0.149277,-0.9970848,2.364354,1.8413006
251,2.5099999999999905,2.3630648,1.7719936,0.44624552,-1.1896601,2.3516784,1.4695891
252,2.5199999999999902,2.3630648,1.7719936,0.44624552,-1.0793989,2.1523838,0.8923214
253,2.52999999999999,1.9081601,1.741687,0.5229573,-0.50823987,1.9271271,0.5225952
254,2.53999999999999,1.4525847,1.7329669,0.51265186,0.1459968,1.6319265,0.2648101
255,2.5499999999999896,1.1425667,1.7505289,0.3567891,1.0100657,1.1717923,-0.05681047
256,2.5599999999999894,0.6688805,1.7529682,-0.24885598,1.828167,0.5900958,-0.714865
257,2.569999999999989,0.6688805,1.7529682,-0.24885598,1.828167,0.5900958,-0.714865
258,2.579999999999989,0.6502209,1.7108924,-0.55552024,1.6953038,0.66782844,-1.1307116
259,2.5899999999999888,0.5133836,1.6874765,-0.7554099,1.2815952,0.9060659,-1.7240144
260,2.5999999999999885,0.2573321,1.5565542,-0.8104741,0.3746131,1.3377949,-2.1951442
261,2.6099999999999883,0.05927175,1.4975264,-0.7576662,0.15134187,1.2496775,-2.2267566
262,2.619999999999988,0.064637914,1.3462981,-0.071040735,0.42271876,0.5652031,-2.2736404
263,2.629999999999988,0.24214828,1.302454,0.19586508,1.078788,-0.42913285,-2.3474023
264,2.6399999999999877,0.5161277,1.2531829,0.26745462,1.5769486,-1.0511464,-2.5129468
265,2.6499999999999875,0.82706046,1.2448897,0.28087005,1.5769486,-1.0511464,-2.5129468
266,2.6599999999999873,1.2064728,1.2306206,0.2648935,1.8889481,-1.3842206,-2.8496864
267,2.669999999999987,1.3755071,1.039024,0.3389222,1.5340353,-0.7516697,-4.3482914
268,2.679999999999987,1.7130269,0.9824354,0.45673394,1.3223705,-0.45066583,-4.578435
269,2.6899999999999866,2.0882318,0.9095043,0.708456,1.1841623,-0.124769226,-4.8484373
270,2.6999999999999864,2.0882318,0.9095043,0.708456,1.3877331,0.07620544,-5.130657
271,2.709999999999986,3.1119497,0.881088,1.5582007,1.3877331,0.07620544,-5.130657
272,2.719999999999986,3.8594325,0.95225066,1.7860799,3.6567922,-1.142318,-5.897904
273,2.7299999999999858,4.833392,0.83870745,1.7465653,4.6147814,-2.121535,-6.105598
274,2.7399999999999856,5.9579697,0.33178765,1.252878,5.2581754,-2.5870142,-6.5840583
275,2.7499999999999853,6.561846,-0.21641506,-0.0023172083,4.011552,-2.2258403,-7.120703
276,2.759999999999985,6.661669,-0.42392716,-0.4607586,2.7374399,-1.9619465,-7.228979
277,2.769999999999985,6.661669,-0.42392716,-0.4607586,2.7374399,-1.9619465,-7.228979
278,2.7799999999999847,6.661669,-0.42392716,-0.4607586,2.7374399,-1.9619465,-7.228979
279,2.7899999999999845,4.52752,-2.596432,0.76382506,2.7374399,-1.9619465,-7.228979
280,2.7999999999999843,3.1460373,-2.9491355,1.6344247,-2.6615398,1.7695239,-8.055175
281,2.809999999999984,2.3530643,-3.0464582,1.8303508,-1.4227052,1.6423112,-7.7300415
282,2.819999999999984,1.0388411,-3.1917717,1.5860682,1.4433218,0.49006665,-6.7908363
283,2.8299999999999836,0.1536675,-3.3449512,0.9855453,3.2548428,-0.5539021,-5.8050523
284,2.8399999999999834,0.1536675,-3.3449512,0.9855453,3.2548428,-0.5539021,-5.8050523
285,2.849999999999983,-0.8955401,-3.3215964,-0.19287711,3.8212676,-1.2501358,-3.7519343
286,2.859999999999983,-1.2217785,-3.284033,-0.45051408,3.048523,-0.79290307,-2.509587
287,2.869999999999983,-1.3908739,-3.304217,-0.6419887,2.329229,-0.2454151,-1.5047138
288,2.8799999999999826,-1.5535662,-3.3545249,-0.81846243,1.5377005,0.07467828,-0.45280385
289,2.8899999999999824,-1.5535662,-3.3545249,-0.81846243,1.5377005,0.07467828,-0.45280385
290,2.899999999999982,-1.5535662,-3.3545249,-0.81846243,1.5377005,0.07467828,-0.45280385
291,2.909999999999982,-1.648328,-3.3236086,-0.86852634,-0.9282097,-0.40026945,3.915799
292,2.9199999999999817,-1.0982348,-3.0016997,-0.49222386,-0.9282097,-0.40026945,3.915799
293,2.9299999999999815,-1.0982348,-3.0016997,-0.49222386,-0.9246973,-0.79809546,4.679533
294,2.9399999999999813,-1.0982348,-3.0016997,-0.49222386,-0.9246973,-0.79809546,4.679533
295,2.949999999999981,-1.0982348,-3.0016997,-0.49222386,-0.9246973,-0.79809546,4.679533
296,2.959999999999981,-1.0982348,-3.0016997,-0.49222386,-0.9246973,-0.79809546,4.679533
297,2.9699999999999807,0.43856218,-2.3962374,-0.8015102,-1.4112514,-3.1322114,7.9513273
298,2.9799999999999804,1.5671645,-2.1758587,-0.6583921,-2.874121,-1.5746579,8.470258
299,2.9899999999999802,1.99658,-2.0793285,-0.4174634,-3.683212,-1.0070114,8.675661
300,2.99999999999998,1.99658,-2.0793285,-0.4174634,-3.683212,-1.0070114,8.675661
301,3.00999999999998,1.99658,-2.0793285,-0.4174634,-3.9596286,-0.89858276,8.861975
302,3.0199999999999796,1.99658,-2.0793285,-0.4174634,-3.9596286,-0.89858276,8.861975
303,3.0299999999999794,1.99658,-2.0793285,-0.4174634,-3.9596286,-0.89858276,8.861975
304,3.039999999999979,2.2193978,-1.9797497,-0.18738899,-0.7414377,-0.839787,10.001391
305,3.049999999999979,7.0352883,0.8534644,1.0720748,-0.25427267,-0.0777326,9.075167
306,3.0599999999999787,6.8333864,1.5306381,0.6304636,-0.15454891,1.2084441,6.912551
307,3.0699999999999785,6.2399373,1.6644264,0.4732593,-0.30818152,1.7547104,5.6566124
308,3.0799999999999783,6.2399373,1.6644264,0.4732593,-0.30818152,1.7547104,5.6566124
309,3.089999999999978,6.2399373,1.6644264,0.4732593,-0.36957347,1.8626808,4.7064114
310,3.099999999999978,4.4256854,1.668329,0.32831186,-0.37797287,1.772731,4.175722
311,3.1099999999999777,3.881568,1.7054045,0.31946984,-0.35338554,1.6844609,3.8496728
312,3.1199999999999775,3.881568,1.7054045,0.31946984,-0.35338554,1.6844609,3.8496728
313,3.1299999999999772,2.2368379,2.016703,-0.19787739,0.829555,1.2663237,1.779145
314,3.139999999999977,2.2368379,2.016703,-0.19787739,0.829555,1.2663237,1.779145
315,3.149999999999977,1.990787,2.104635,-0.41002396,0.527024,0.6772968,0.24923302
316,3.1599999999999766,1.2053142,2.216166,-0.75547093,0.055436023,0.46685377,-0.52732944
317,3.1699999999999764,1.2053142,2.216166,-0.75547093,0.055436023,0.46685377,-0.52732944
318,3.179999999999976,0.16891229,1.9856037,-0.45258737,-1.1763737,0.7275405,-1.3826935
319,3.189999999999976,0.16891229,1.9856037,-0.45258737,-1.1763737,0.7275405,-1.3826935
320,3.1999999999999758,-0.07341892,1.837851,0.28507763,-1.2052372,1.1151345,-1.5544994
321,3.2099999999999755,0.03164819,1.8069957,0.62418276,-0.32559118,0.67103547,-1.8298469
322,3.2199999999999753,0.1764737,1.7001601,0.7819359,0.8535315,0.050549097,-2.1781929
323,3.229999999999975,0.3734974,1.648023,0.70607775,1.6728544,-0.321926,-2.4810293
324,3.239999999999975,0.6654047,1.6088134,0.53698254,2.195297,-0.4717407,-2.8160887
325,3.2499999999999747,1.1972649,1.5412484,0.3233725,2.346486,-0.2848159,-3.356552
326,3.2599999999999745,1.1972649,1.5412484,0.3233725,2.346486,-0.2848159,-3.356552
327,3.2699999999999743,1.1972649,1.5412484,0.3233725,2.346486,-0.2848159,-3.356552
328,3.279999999999974,2.0361555,1.1381152,0.36105764,1.6627752,0.6085745,-5.3281193
329,3.289999999999974,2.74577,0.9815207,0.9129801,2.5619688,0.11438452,-5.722891
330,3.2999999999999736,2.74577,0.9815207,0.9129801,2.5619688,0.11438452,-5.722891
331,3.3099999999999734,3.308364,1.0117054,1.0337188,4.5478916,-1.2574661,-5.856365
332,3.319999999999973,5.433671,1.0337799,1.1049424,4.5478916,-1.2574661,-5.856365
333,3.329999999999973,6.756492,0.5125909,0.4867357,4.934417,-1.6542231,-6.7050095
334,3.3399999999999728,7.1868215,-0.79675376,-0.2584297,4.466494,-1.6536123,-7.533801
335,3.3499999999999726,6.9763827,-1.5071001,-0.38435167,2.3393085,-0.71883565,-8.420777
336,3.3599999999999723,6.9763827,-1.5071001,-0.38435167,2.3393085,-0.71883565,-8.420777
337,3.369999999999972,5.3287864,-2.7079017,-0.10201815,-0.50671273,-0.01817324,-8.649547
338,3.379999999999972,5.3287864,-2.7079017,-0.10201815,-0.50671273,-0.01817324,-8.649547
339,3.3899999999999717,5.3287864,-2.7079017,-0.10201815,-0.50671273,-0.01817324,-8.649547
340,3.3999999999999715,5.3287864,-2.7079017,-0.10201815,-0.50671273,-0.01817324,-8.649547
341,3.4099999999999713,5.3287864,-2.7079017,-0.10201815,-0.50671273,-0.01817324,-8.649547
342,3.419999999999971,4.376658,-3.017859,0.50094384,-0.9966267,0.07651087,-8.58342
343,3.429999999999971,-0.9310299,-3.544475,0.7227251,0.96944314,-0.053450707,-5.913328
344,3.4399999999999706,-0.9310299,-3.544475,0.7227251,1.6232216,-0.40332377,-4.3602033
345,3.4499999999999704,-1.4761227,-3.5927098,0.12287302,2.1734586,-0.49373183,-1.9927951
346,3.45999999999997,-1.4761227,-3.5927098,0.12287302,2.1734586,-0.49373183,-1.9927951
347,3.46999999999997,-1.4761227,-3.5927098,0.12287302,2.1734586,-0.49373183,-1.9927951
348,3.47999999999997,-1.4761227,-3.5927098,0.12287302,2.1734586,-0.49373183,-1.9927951
349,3.4899999999999696,-1.9652976,-3.6424687,-0.4613074,-1.0752755,-0.6582073,3.4252741
350,3.4999999999999694,-1.7168075,-3.5587442,-0.2040363,-1.6238326,-0.54000485,4.702288
351,3.509999999999969,-1.2747695,-3.3408048,0.019940188,-1.8339702,-0.55756724,6.088341
352,3.519999999999969,-1.2747695,-3.3408048,0.019940188,-1.8339702,-0.55756724,6.088341
353,3.5299999999999687,-1.2747695,-3.3408048,0.019940188,-1.8339702,-0.55756724,6.088341
354,3.5399999999999685,-1.2747695,-3.3408048,0.019940188,-1.8339702,-0.55756724,6.088341
355,3.5499999999999683,-1.2747695,-3.3408048,0.019940188,-1.8339702,-0.55756724,6.088341
356,3.559999999999968,0.948409,-2.1850665,-0.38136372,-2.324953,-0.5688683,8.555321
357,3.569999999999968,0.948409,-2.1850665,-0.38136372,-2.324953,-0.5688683,8.555321
358,3.5799999999999677,0.948409,-2.1850665,-0.38136372,-2.324953,-0.5688683,8.555321
359,3.5899999999999674,0.948409,-2.1850665,-0.38136372,-2.324953,-0.5688683,8.555321
360,3.5999999999999672,0.948409,-2.1850665,-0.38136372,-2.324953,-0.5688683,8.555321
361,3.609999999999967,0.948409,-2.1850665,-0.38136372,-2.324953,-0.5688683,8.555321
362,3.619999999999967,4.017795,-1.5441146,1.0132909,-3.4373388,-0.41523564,10.65181
363,3.6299999999999666,5.5057483,-0.81827945,1.3867272,-2.5100453,0.3578143,10.110126
364,3.6399999999999664,5.5057483,-0.81827945,1.3867272,-2.5100453,0.3578143,10.110126
365,3.649999999999966,5.5057483,-0.81827945,1.3867272,-2.5100453,0.3578143,10.110126
366,3.659999999999966,5.5057483,-0.81827945,1.3867272,-2.5100453,0.3578143,10.110126
367,3.6699999999999657,5.5057483,-0.81827945,1.3867272,-2.5100453,0.3578143,10.110126
368,3.6799999999999655,5.5057483,-0.81827945,1.3867272,-2.5100453,0.3578143,10.110126
369,3.6899999999999653,3.8017461,1.6317415,0.15391143,-0.20311269,1.2533427,2.715296
370,3.699999999999965,3.8017461,1.6317415,0.15391143,-0.20311269,1.2533427,2.715296
371,3.709999999999965,3.8017461,1.6317415,0.15391143,-0.20311269,1.2533427,2.715296
372,3.7199999999999647,3.8017461,1.6317415,0.15391143,-0.20311269,1.2533427,2.715296
373,3.7299999999999645,3.8017461,1.6317415,0.15391143,-0.20311269,1.2533427,2.715296
374,3.7399999999999642,3.8017461,1.6317415,0.15391143,-0.20311269,1.2533427,2.715296
375,3.749999999999964,1.5158201,1.7721766,0.30373722,0.50533825,0.020616703,-0.43096542
376,3.759999999999964,0.6261341,1.7687008,0.020001167,0.86299986,-0.36483926,-0.9567677
377,3.7699999999999636,0.5338116,1.7860188,-0.018171793,0.92347556,-0.33567044,-1.2904528
378,3.7799999999999634,0.5338116,1.7860188,-0.018171793,0.92347556,-0.33567044,-1.2904528
379,3.789999999999963,0.5338116,1.7860188,-0.018171793,0.92347556,-0.33567044,-1.2904528
380,3.799999999999963,0.5338116,1.7860188,-0.018171793,0.92347556,-0.33567044,-1.2904528
381,3.8099999999999627,0.6358908,1.72382,0.44655046,1.1549934,0.11789699,-2.4885123
382,3.8199999999999625,0.7596785,1.7049775,0.5582033,1.4094188,-0.16157386,-2.6827674
383,3.8299999999999623,1.2565367,1.4853915,0.72327393,2.4582744,-1.0742066,-3.640146
384,3.839999999999962,1.4356935,1.3253822,0.64076906,2.894585,-1.3180945,-4.385096
385,3.849999999999962,1.9567605,0.9193829,0.53838503,2.930626,-1.2866349,-4.731151
386,3.8599999999999617,1.9567605,0.9193829,0.53838503,2.930626,-1.2866349,-4.731151
387,3.8699999999999615,1.9567605,0.9193829,0.53838503,2.930626,-1.2866349,-4.731151
388,3.8799999999999613,1.9567605,0.9193829,0.53838503,2.930626,-1.2866349,-4.731151
389,3.889999999999961,1.9567605,0.9193829,0.53838503,2.930626,-1.2866349,-4.731151
390,3.899999999999961,1.9567605,0.9193829,0.53838503,2.930626,-1.2866349,-4.731151
391,3.9099999999999606,1.9567605,0.9193829,0.53838503,2.930626,-1.2866349,-4.731151
392,3.9199999999999604,1.9567605,0.9193829,0.53838503,2.930626,-1.2866349,-4.731151
393,3.92999999999996,1.9567605,0.9193829,0.53838503,2.930626,-1.2866349,-4.731151
394,3.93999999999996,1.9567605,0.9193829,0.53838503,2.930626,-1.2866349,-4.731151
395,3.9499999999999598,1.9567605,0.9193829,0.53838503,2.930626,-1.2866349,-4.731151
396,3.9599999999999596,1.9567605,0.9193829,0.53838503,2.930626,-1.2866349,-4.731151
397,3.9699999999999593,1.9567605,0.9193829,0.53838503,2.930626,-1.2866349,-4.731151
398,3.979999999999959,1.9567605,0.9193829,0.53838503,2.930626,-1.2866349,-4.731151
399,3.989999999999959,1.9567605,0.9193829,0.53838503,2.930626,-1.2866349,-4.731151
400,3.9999999999999587,1.9567605,0.9193829,0.53838503,2.930626,-1.2866349,-4.731151
401,4.009999999999959,1.9567605,0.9193829,0.53838503,2.930626,-1.2866349,-4.731151
402,4.019999999999959,1.9567605,0.9193829,0.53838503,2.930626,-1.2866349,-4.731151
403,4.0299999999999585,1.9567605,0.9193829,0.53838503,2.930626,-1.2866349,-4.731151
404,4.039999999999958,1.9567605,0.9193829,0.53838503,2.930626,-1.2866349,-4.731151
405,4.049999999999958,1.9567605,0.9193829,0.53838503,2.930626,-1.2866349,-4.731151
406,4.059999999999958,5.4434276,-2.6156404,-0.26471058,-0.61682117,-0.9114109,-8.766527
407,4.069999999999958,-2.040302,-3.9852324,-0.80827886,-0.8034405,-1.3335189,1.4161384
408,4.079999999999957,-2.040302,-3.9852324,-0.80827886,-0.8034405,-1.3335189,1.4161384
409,4.089999999999957,-2.078353,-4.1406074,-0.41002396,-1.7602082,-0.8342892,2.8626673
410,4.099999999999957,-2.1384783,-4.188415,-0.16982698,-2.0583105,-0.67057735,4.177707
411,4.109999999999957,-2.1384783,-4.188415,-0.16982698,-2.0583105,-0.67057735,4.177707
412,4.119999999999957,0.9353595,-3.4838617,-0.35380113,-0.94225967,-0.8584184,10.652268
413,4.129999999999956,0.9353595,-3.4838617,-0.35380113,-1.3489432,-0.46196684,10.540327
414,4.139999999999956,1.5733844,-3.175795,-0.63576883,-1.3489432,-0.46196684,10.540327
415,4.149999999999956,2.0170689,-2.7874188,-0.887064,-2.2806654,0.010995574,10.042014
416,4.159999999999956,2.0170689,-2.7874188,-0.887064,-2.2806654,0.010995574,10.042014
417,4.1699999999999555,2.0170689,-2.7874188,-0.887064,-2.2806654,0.010995574,10.042014
418,4.179999999999955,2.0170689,-2.7874188,-0.887064,-2.2806654,0.010995574,10.042014
419,4.189999999999955,5.2734785,-1.595154,0.9349326,-1.9749273,-0.6272059,12.0149555
420,4.199999999999955,6.571298,-1.0590253,0.8852955,-1.5917621,0.10873401,11.921341
421,4.209999999999955,8.005162,0.0061588963,0.50594413,-1.6710218,1.6245961,9.887465
422,4.2199999999999545,8.005162,0.0061588963,0.50594413,-1.6710218,1.6245961,9.887465
423,4.229999999999954,7.8481407,0.33239743,0.5618011,-1.856114,1.8046486,7.943997
424,4.239999999999954,6.0898066,1.0523785,1.3876419,-0.1656972,0.17638734,5.775273
425,4.249999999999954,5.9851055,1.3239187,1.1634215,0.7796168,-0.082619525,4.9345694
426,4.259999999999954,5.9851055,1.3239187,1.1634215,0.7796168,-0.082619525,4.9345694
427,4.269999999999953,5.9851055,1.3239187,1.1634215,0.7796168,-0.082619525,4.9345694
428,4.279999999999953,4.3800726,1.6979648,-0.06043036,0.20112738,0.7866417,2.81334
429,4.289999999999953,4.3800726,1.6979648,-0.06043036,0.20112738,0.7866417,2.81334
430,4.299999999999953,4.3800726,1.6979648,-0.06043036,0.20112738,0.7866417,2.81334
431,4.3099999999999525,4.3800726,1.6979648,-0.06043036,0.20112738,0.7866417,2.81334
432,4.319999999999952,4.3800726,1.6979648,-0.06043036,0.20112738,0.7866417,2.81334
433,4.329999999999952,1.9817619,1.979018,0.82876784,2.322357,0.43127087,-1.2163854
434,4.339999999999952,1.9817619,1.979018,0.82876784,2.322357,0.43127087,-1.2163854
435,4.349999999999952,1.9817619,1.979018,0.82876784,2.322357,0.43127087,-1.2163854
436,4.3599999999999515,1.9817619,1.979018,0.82876784,2.322357,0.43127087,-1.2163854
437,4.369999999999951,1.9817619,1.979018,0.82876784,2.322357,0.43127087,-1.2163854
438,4.379999999999951,1.9817619,1.979018,0.82876784,2.322357,0.43127087,-1.2163854
439,4.389999999999951,1.9817619,1.979018,0.82876784,2.322357,0.43127087,-1.2163854
440,4.399999999999951,0.5899125,1.6446692,0.31306705,1.5178474,-0.7518224,-2.860682
441,4.40999999999995,1.164946,1.618753,0.541373,1.651627,-0.635758,-3.2578971
442,4.41999999999995,1.164946,1.618753,0.541373,1.8237382,-0.46211955,-3.8056905
443,4.42999999999995,1.5978981,1.5694817,0.6057671,1.8237382,-0.46211955,-3.8056905
444,4.43999999999995,1.5978981,1.5694817,0.6057671,1.8237382,-0.46211955,-3.8056905
445,4.4499999999999496,1.5978981,1.5694817,0.6057671,1.8237382,-0.46211955,-3.8056905
446,4.459999999999949,3.1536596,0.5368606,0.9883504,1.8186985,0.067500606,-6.1323233
447,4.469999999999949,4.527825,0.34587383,1.2456825,2.321746,-0.43203443,-6.037792
448,4.479999999999949,4.527825,0.34587383,1.2456825,2.9712486,-1.0024298,-5.7511435
449,4.489999999999949,4.527825,0.34587383,1.2456825,2.9712486,-1.0024298,-5.7511435
450,4.4999999999999485,4.527825,0.34587383,1.2456825,2.9712486,-1.0024298,-5.7511435
451,4.509999999999948,4.527825,0.34587383,1.2456825,2.9712486,-1.0024298,-5.7511435
452,4.519999999999948,4.527825,0.34587383,1.2456825,2.9712486,-1.0024298,-5.7511435
453,4.529999999999948,6.888999,-2.4691684,-0.5366167,-0.9976957,-0.9625709,-8.718575
454,4.539999999999948,4.928214,-3.395442,0.8449273,-2.3215933,0.7489208,-8.704524
455,4.549999999999947,3.6711287,-3.6171622,1.7224176,-1.6865989,1.8971947,-8.4042845
456,4.559999999999947,3.6711287,-3.6171622,1.7224176,-1.6865989,1.8971947,-8.4042845
457,4.569999999999947,3.6711287,-3.6171622,1.7224176,-1.6865989,1.8971947,-8.4042845
458,4.579999999999947,3.6711287,-3.6171622,1.7224176,-1.6865989,1.8971947,-8.4042845
459,4.589999999999947,-0.5294821,-3.9419982,0.3281289,4.822781,-1.5859588,-5.5083246
460,4.599999999999946,-1.1201264,-3.7832086,-0.22598879,4.424039,-2.0735822,-4.3429465
461,4.609999999999946,-1.8260212,-3.4298341,-0.52490866,1.5541939,-0.015271631,-1.0566442
462,4.619999999999946,-1.8260212,-3.4298341,-0.52490866,1.5541939,-0.015271631,-1.0566442
463,4.629999999999946,-1.8260212,-3.4298341,-0.52490866,1.5541939,-0.015271631,-1.0566442
464,4.6399999999999455,-1.8260212,-3.4298341,-0.52490866,1.5541939,-0.015271631,-1.0566442
465,4.649999999999945,-1.8260212,-3.4298341,-0.52490866,1.5541939,-0.015271631,-1.0566442
466,4.659999999999945,-1.7121731,-3.196528,-0.053478733,-2.097253,-0.1375974,4.0614905
467,4.669999999999945,-1.7121731,-3.196528,-0.053478733,-2.097253,-0.1375974,4.0614905
468,4.679999999999945,-1.6253387,-3.103474,-0.06591848,-1.883603,-0.7609854,4.985424
469,4.689999999999944,-1.6253387,-3.103474,-0.06591848,-1.883603,-0.7609854,4.985424
470,4.699999999999944,-1.6253387,-3.103474,-0.06591848,-1.883603,-0.7609854,4.985424
471,4.709999999999944,-1.6253387,-3.103474,-0.06591848,-1.883603,-0.7609854,4.985424
472,4.719999999999944,1.0438414,-2.2645833,-0.12647079,-2.3080015,-0.7012733,8.95956
473,4.729999999999944,1.627168,-2.0839021,-0.22324473,-2.611449,-0.3408628,8.846092
474,4.739999999999943,1.8391318,-1.990604,-0.27147925,-2.611449,-0.3408628,8.846092
475,4.749999999999943,1.8391318,-1.990604,-0.27147925,-2.611449,-0.3408628,8.846092
476,4.759999999999943,1.8391318,-1.990604,-0.27147925,-2.611449,-0.3408628,8.846092
477,4.769999999999943,1.8391318,-1.990604,-0.27147925,-2.611449,-0.3408628,8.846092
478,4.7799999999999425,1.8391318,-1.990604,-0.27147925,-2.826779,-0.14095716,8.754615
479,4.789999999999942,5.9879103,-0.5950347,1.0929906,-2.3921483,-1.0499246,9.569815
480,4.799999999999942,6.761309,0.80803496,0.8077301,-1.7340937,1.4010195,6.945843
481,4.809999999999942,6.761309,0.80803496,0.8077301,-1.7340937,1.4010195,6.945843
482,4.819999999999942,6.761309,0.80803496,0.8077301,-1.7340937,1.4010195,6.945843
483,4.8299999999999415,6.761309,0.80803496,0.8077301,-1.7340937,1.4010195,6.945843
484,4.839999999999941,6.761309,0.80803496,0.8077301,-1.7340937,1.4010195,6.945843
485,4.849999999999941,3.934437,1.267574,0.60655975,-0.9960158,1.2628112,2.23989
486,4.859999999999941,3.5111806,1.5374067,0.31684774,-1.2907583,1.5337299,1.8037324
487,4.869999999999941,3.029811,1.6253387,0.39282778,-1.2907583,1.5337299,1.8037324
488,4.87999999999994,3.029811,1.6253387,0.39282778,-1.2907583,1.5337299,1.8037324
489,4.88999999999994,3.029811,1.6253387,0.39282778,-1.2907583,1.5337299,1.8037324
490,4.89999999999994,3.029811,1.6253387,0.39282778,-1.2907583,1.5337299,1.8037324
491,4.90999999999994,3.029811,1.6253387,0.39282778,-1.2907583,1.5337299,1.8037324
492,4.9199999999999395,0.45752668,2.034814,0.2045851,1.4530957,0.31688634,-1.3571899
493,4.929999999999939,0.13793488,2.0219471,-0.0031099375,1.7273742,0.07162395,-1.651627
494,4.939999999999939,0.13793488,2.0219471,-0.0031099375,1.7273742,0.07162395,-1.651627
495,4.949999999999939,0.13793488,2.0219471,-0.0031099375,1.7273742,0.07162395,-1.651627
496,4.959999999999939,0.13793488,2.0219471,-0.0031099375,1.7273742,0.07162395,-1.651627
497,4.9699999999999385,0.13793488,2.0219471,-0.0031099375,1.7273742,0.07162395,-1.651627
498,4.979999999999938,-0.1536675,1.6526574,0.28556544,1.3921618,-0.29886582,-2.2774584
499,4.989999999999938,-0.1536675,1.6526574,0.28556544,1.3921618,-0.29886582,-2.2774584
500,4.999999999999938,-0.1536675,1.6526574,0.28556544,1.3921618,-0.29886582,-2.2774584
501,5.009999999999938,-0.1536675,1.6526574,0.28556544,1.3921618,-0.29886582,-2.2774584
502,5.019999999999937,-0.1536675,1.6526574,0.28556544,1.3921618,-0.29886582,-2.2774584
503,5.029999999999937,-0.1536675,1.6526574,0.28556544,1.3921618,-0.29886582,-2.2774584
504,5.039999999999937,-0.1536675,1.6526574,0.28556544,1.3921618,-0.29886582,-2.2774584
505,5.049999999999937,2.839495,0.86706275,0.9201756,2.5520422,-0.30863968,-5.364008
506,5.0599999999999365,2.839495,0.86706275,0.9201756,2.5520422,-0.30863968,-5.364008
507,5.069999999999936,2.839495,0.86706275,0.9201756,2.5520422,-0.30863968,-5.364008
508,5.079999999999936,2.839495,0.86706275,0.9201756,2.5520422,-0.30863968,-5.364008
509,5.089999999999936,2.839495,0.86706275,0.9201756,2.5520422,-0.30863968,-5.364008
510,5.099999999999936,2.839495,0.86706275,0.9201756,2.5520422,-0.30863968,-5.364008
511,5.1099999999999355,5.841804,-2.4201412,0.050185855,-1.6953038,-1.0714576,-8.46812
512,5.119999999999935,5.0223055,-2.8957787,0.8455371,-1.6953038,-1.0714576,-8.46812
513,5.129999999999935,4.113289,-3.1019495,1.6566821,-1.9862283,0.9521862,-8.084343
514,5.139999999999935,4.113289,-3.1019495,1.6566821,-1.9862283,0.9521862,-8.084343
515,5.149999999999935,4.113289,-3.1019495,1.6566821,-1.9862283,0.9521862,-8.084343
516,5.159999999999934,0.93340814,-3.1677458,1.089088,3.622889,-0.30695978,-6.230673
517,5.169999999999934,0.93340814,-3.1677458,1.089088,3.622889,-0.30695978,-6.230673
518,5.179999999999934,0.93340814,-3.1677458,1.089088,3.622889,-0.30695978,-6.230673
519,5.189999999999934,0.93340814,-3.1677458,1.089088,3.622889,-0.30695978,-6.230673
520,5.199999999999934,-1.3895323,-3.1001809,-0.69906515,1.045954,0.6973027,-1.5790867
521,5.209999999999933,-1.3895323,-3.1001809,-0.69906515,1.045954,0.6973027,-1.5790867
522,5.219999999999933,-1.800288,-3.2336032,-0.78583854,0.07238753,1.0322095,-0.41080686
523,5.229999999999933,-1.9720054,-3.2868383,-0.7854727,-0.6377433,0.70096785,0.59773165
524,5.239999999999933,-1.923649,-3.3454392,-0.61271864,-1.2504412,0.28496864,1.5816828
525,5.2499999999999325,-1.5168568,-3.3804412,-0.17549805,-1.5940529,-0.30283645,3.2798882
526,5.259999999999932,-1.4965508,-3.3648915,-0.21592724,-1.2680036,-1.0231993,4.191452
527,5.269999999999932,-1.2992221,-3.260983,-0.2697718,-1.0647382,-1.8048013,5.4168477
528,5.279999999999932,-1.2992221,-3.260983,-0.2697718,-1.0601566,-2.0525072,6.220441
529,5.289999999999932,-0.15872878,-2.9848084,-0.22958656,-1.3199271,-1.8090774,7.5745764
530,5.299999999999931,0.45002624,-2.8197377,-0.22208612,-1.7073684,-1.2479976,8.152149
531,5.309999999999931,1.0395728,-2.5617957,-0.25788093,-2.3321307,-0.5543602,8.496372
532,5.319999999999931,1.3988621,-2.379834,-0.27306473,-2.8840475,-0.2780964,8.680243
533,5.329999999999931,1.7726034,-2.2326913,-0.25068536,-3.441004,-0.2275473,8.945663
534,5.339999999999931,2.471181,-1.9707857,-0.01981823,-4.0559926,-0.37201694,9.555306
535,5.34999999999993,3.1151817,-1.7136366,0.2139759,-4.5341473,-0.100029185,10.518794
536,5.35999999999993,6.3828726,-0.072016396,1.1125039,-4.6944995,1.0997101,10.397842
537,5.36999999999993,6.3828726,-0.072016396,1.1125039,-4.6944995,1.0997101,10.397842
538,5.37999999999993,6.9665647,1.0117663,2.3661745,-4.344321,2.5082128,7.3505416
539,5.3899999999999295,6.9665647,1.0117663,2.3661745,-4.344321,2.5082128,7.3505416
540,5.399999999999929,5.7264924,1.6961354,2.6557648,0.61101794,0.8060367,4.9506044
541,5.409999999999929,5.1277385,1.6729026,1.893708,2.3744333,0.63270366,4.0155225
542,5.419999999999929,4.5567293,1.7322353,0.84151256,2.3744333,0.63270366,4.0155225
543,5.429999999999929,3.9410837,1.8048005,-0.09098092,2.125811,1.6274977,2.708271
544,5.4399999999999284,3.436237,1.8835855,-0.54631233,1.1284208,1.9242256,2.1539109
545,5.449999999999928,2.801444,1.8810244,-0.582351,-0.1779145,1.9136881,1.4410311
546,5.459999999999928,2.0915246,1.7794331,-0.19738956,-1.0526736,1.9165897,0.6218608
547,5.469999999999928,1.6894889,1.7591269,0.003963646,-1.0917689,1.8816177,0.24129178
548,5.479999999999928,1.2403163,1.7979097,0.20025559,-0.6372852,1.660179,-0.3213151
549,5.489999999999927,0.7619347,1.8571205,0.28587034,0.024892759,1.3842206,-0.6939429
550,5.499999999999927,0.41532913,1.885171,0.12854409,0.7142542,0.98792183,-0.95478237
551,5.509999999999927,0.41532913,1.885171,0.12854409,0.7142542,0.98792183,-0.95478237
552,5.519999999999927,0.1847059,1.8691944,-0.15232596,0.7142542,0.98792183,-0.95478237
553,5.5299999999999265,-0.012805625,1.817301,-0.30959123,1.1357512,0.100792766,-1.6910278
554,5.539999999999926,-0.04744179,1.6525356,0.04049017,1.0474812,0.07192938,-1.8516853
555,5.549999999999926,0.22324473,1.6135697,0.44429418,1.0105238,-0.06658431,-2.0593793
556,5.559999999999926,0.22324473,1.6135697,0.44429418,1.3255776,-0.40301836,-2.2725713
557,5.569999999999926,0.6019254,1.5535053,0.8766975,2.2230914,-0.8350528,-2.6933048
558,5.5799999999999255,0.88877136,1.4361813,0.9774961,3.2861495,-1.075581,-3.1786373
559,5.589999999999925,1.6053985,1.3062958,0.59930325,4.308585,-1.4002558,-4.1421247
560,5.599999999999925,1.937491,1.252878,0.465393,4.233907,-1.4030048,-4.7580295
561,5.609999999999925,1.937491,1.252878,0.465393,4.233907,-1.4030048,-4.7580295
562,5.619999999999925,2.3816023,1.0222547,0.4989925,3.7278051,-1.1691961,-5.452125
563,5.629999999999924,2.3816023,1.0222547,0.4989925,3.2097914,-0.97509366,-5.719226
564,5.639999999999924,2.3816023,1.0222547,0.4989925,3.2097914,-0.97509366,-5.719226
565,5.649999999999924,2.3816023,1.0222547,0.4989925,3.2097914,-0.97509366,-5.719226
566,5.659999999999924,6.934063,0.26879618,1.7551025,3.2087224,-2.0523546,-6.8452034
567,5.6699999999999235,6.065049,0.76943517,1.7952876,2.91398,-1.3860532,-7.3806267
568,5.679999999999923,6.9708943,-1.0813435,0.90371126,2.0434968,-0.56214875,-7.6929317
569,5.689999999999923,6.9708943,-1.0813435,0.90371126,2.0434968,-0.56214875,-7.6929317
570,5.699999999999923,6.9708943,-1.0813435,0.90371126,2.0434968,-0.56214875,-7.6929317
571,5.709999999999923,6.9708943,-1.0813435,0.90371126,2.0434968,-0.56214875,-7.6929317
572,5.7199999999999225,5.768873,-2.3073297,0.85163504,0.12843442,0.301462,-8.117177
573,5.729999999999922,3.559476,-3.0375552,1.6532671,1.2831224,0.61468315,-7.636579
574,5.739999999999922,0.12903193,-3.381295,0.48917487,3.5781431,-0.33567044,-6.4915123
575,5.749999999999922,0.12903193,-3.381295,0.48917487,4.3435574,-1.3052663,-5.20671
576,5.759999999999922,0.12903193,-3.381295,0.48917487,4.3435574,-1.3052663,-5.20671
577,5.769999999999921,0.12903193,-3.381295,0.48917487,4.3435574,-1.3052663,-5.20671
578,5.779999999999921,-1.0649402,-3.3336089,-0.5594229,2.1088595,-0.08124508,-1.7574593
579,5.789999999999921,-1.6634508,-3.5091681,-0.80352247,0.06337727,1.5879441,-0.21746802
580,5.799999999999921,-2.0393872,-3.5989907,-0.8851126,-0.5910121,1.1018482,0.6588182
581,5.809999999999921,-2.2211661,-3.6607623,-0.649855,-1.1302534,0.11789699,1.988061
582,5.81999999999992,-2.1857371,-3.646859,-0.4985657,-1.1302534,0.11789699,1.988061
583,5.82999999999992,-1.9543823,-3.4853253,-0.4256346,-1.2512047,-0.70295316,4.4556513
584,5.83999999999992,-1.8487663,-3.4204433,-0.45264837,-1.274723,-0.82863873,5.278181
585,5.84999999999992,-1.2925754,-3.1952474,-0.5887539,-1.4895949,-1.0474812,6.6845455
586,5.8599999999999195,-0.5867415,-2.9131577,-0.6172921,-1.8881844,-1.2325734,7.845037
587,5.869999999999919,0.07439458,-2.7147925,-0.65259904,-2.3133466,-1.3381003,8.414058
588,5.879999999999919,0.07439458,-2.7147925,-0.65259904,-3.167947,-1.2454015,8.621294
589,5.889999999999919,1.4095335,-2.2727544,-0.48283303,-3.4917057,-1.1073459,8.524472
590,5.899999999999919,1.8788902,-1.9692003,-0.21239044,-4.287816,-0.67256266,7.9340706
591,5.909999999999918,1.8981595,-1.9656024,-0.043661084,-4.724279,-0.6256787,7.7353864
592,5.919999999999918,2.0554857,-2.1095743,0.20580468,-4.9309044,-0.79611015,8.094422
593,5.929999999999918,2.786809,-2.1596382,0.66205084,-4.924032,-1.2463179,8.961241
594,5.939999999999918,3.486667,-2.008044,0.9766424,-4.2401686,-1.1774428,9.644188
595,5.949999999999918,5.484466,-1.1100037,1.4944165,-4.2401686,-1.1774428,9.644188
596,5.959999999999917,5.484466,-1.1100037,1.4944165,-4.0824122,-0.4980079,9.432065
597,5.969999999999917,6.4840975,-0.35056922,2.0369482,-3.48239,0.20708331,9.171073
598,5.979999999999917,7.021873,0.85687923,1.9895062,-2.4469736,1.2873985,8.134587
599,5.989999999999917,7.021873,0.85687923,1.9895062,-1.822211,1.8781052,7.1597986
600,5.9999999999999165,5.534591,1.4214244,1.1221386,-0.47036624,1.9434677,5.2780285
601,6.009999999999916,5.534591,1.4214244,1.1221386,0.055588737,1.7099645,4.4822235
602,6.019999999999916,4.022247,1.5996665,0.058052167,-0.19898935,1.1806498,2.6451993
603,6.029999999999916,3.7128994,1.6086915,-0.017257104,-0.6401868,1.2356277,2.1760547
604,6.039999999999916,3.0574956,1.6344855,0.14689882,-1.365742,1.3310753,1.3025174
605,6.0499999999999154,2.517281,1.7059531,0.5177741,-1.3984233,1.0699304,0.72234815
606,6.059999999999915,2.517281,1.7059531,0.5177741,-1.3984233,1.0699304,0.72234815
607,6.069999999999915,1.7844943,1.9467599,0.7321159,-0.05757405,0.12965615,-0.24770586
608,6.079999999999915,1.5339919,2.0071905,0.59338826,0.28252518,0.15683965,-0.63224554
609,6.089999999999915,0.96645886,2.1057327,0.20495099,0.40973786,0.53130007,-1.2899947
610,6.099999999999914,0.66613644,2.1585405,0.08140719,0.20922135,0.7675522,-1.6653714
611,6.109999999999914,0.34642264,2.165492,0.1243975,-0.025045475,0.808022,-2.0828977
612,6.119999999999914,0.34642264,2.165492,0.1243975,-0.025045475,0.808022,-2.0828977
613,6.129999999999914,0.34642264,2.165492,0.1243975,0.066737026,0.5758932,-2.5854871
614,6.1399999999999135,0.34642264,2.165492,0.1243975,1.5454891,0.065515295,-3.1991012
615,6.149999999999913,0.11945819,1.8363267,1.2436092,0.6056729,0.311694,-2.8586967
616,6.159999999999913,0.11945819,1.8363267,1.2436092,2.341141,0.007941248,-3.4593298
617,6.169999999999913,0.66589254,1.5391142,1.2726963,3.234226,-0.021227567,-3.8524218
618,6.179999999999913,1.6345465,1.0866487,0.7387626,4.0039163,0.23671028,-5.0891185
619,6.1899999999999125,2.0526807,0.8963328,0.6132675,3.8018725,0.52442783,-6.0874248
620,6.199999999999912,2.2872066,0.7535805,0.6402203,3.8018725,0.52442783,-6.0874248
621,6.209999999999912,2.5367334,0.65576994,0.80571777,3.6128097,0.43279803,-6.923852
622,6.219999999999912,2.5367334,0.65576994,0.80571777,3.6128097,0.43279803,-6.923852
623,6.229999999999912,2.82486,0.6276586,0.9127362,3.656334,0.14385876,-6.8868947
624,6.239999999999911,5.723993,0.5279576,1.1808616,3.9191587,-0.3089451,-6.4171395
625,6.249999999999911,7.0557165,-0.051405437,0.7832164,3.7588065,0.074830994,-6.9153
626,6.259999999999911,7.6547756,-0.77766734,0.37611952,3.2061262,0.07284568,-7.50845
627,6.269999999999911,7.6939244,-1.5618594,0.13714215,2.2912028,-0.071776666,-8.172919
628,6.2799999999999105,7.0362644,-2.444289,0.23495273,1.0193814,-0.18952094,-8.81051
629,6.28999999999991,5.828267,-3.06213,0.6188166,0.029474247,0.028405234,-9.062339
630,6.29999999999991,4.6444783,-3.3744652,1.0869538,-0.124311075,0.47448957,-8.912218
631,6.30999999999991,3.0141394,-3.526852,1.3658113,0.9431759,0.8791878,-8.065559
632,6.31999999999991,3.0141394,-3.526852,1.3658113,0.9431759,0.8791878,-8.065559
633,6.3299999999999095,3.0141394,-3.526852,1.3658113,0.9431759,0.8791878,-8.065559
634,6.339999999999909,3.0141394,-3.526852,1.3658113,0.9431759,0.8791878,-8.065559
635,6.349999999999909,3.0141394,-3.526852,1.3658113,0.9431759,0.8791878,-8.065559
636,6.359999999999909,-1.121102,-3.2484822,-0.49673632,3.0042353,-0.68966687,-2.6019804
637,6.369999999999909,-1.4259369,-3.2499459,-0.5294821,2.322204,-0.004886922,-1.4702
638,6.379999999999908,-1.4259369,-3.2499459,-0.5294821,2.322204,-0.004886922,-1.4702
639,6.389999999999908,-1.4259369,-3.2499459,-0.5294821,2.322204,-0.004886922,-1.4702
640,6.399999999999908,-1.4259369,-3.2499459,-0.5294821,2.322204,-0.004886922,-1.4702
641,6.409999999999908,-1.5560055,-3.2890334,-0.611682,2.322204,-0.004886922,-1.4702
642,6.419999999999908,-1.7063191,-3.3469634,-0.6032059,0.06047566,-0.6203337,3.559512
643,6.429999999999907,-0.96944684,-3.1146328,-0.38575423,-0.56596667,-0.59498274,5.885992
644,6.439999999999907,-0.48893097,-2.8909614,-0.41435343,-0.79076505,-0.5497787,6.7775497
645,6.449999999999907,-0.48893097,-2.8909614,-0.41435343,-0.79076505,-0.5497787,6.7775497
646,6.459999999999907,-0.48893097,-2.8909614,-0.41435343,-0.79076505,-0.5497787,6.7775497
647,6.4699999999999065,-0.48893097,-2.8909614,-0.41435343,-0.79076505,-0.5497787,6.7775497
648,6.479999999999906,0.9120654,-2.3428195,-0.40752378,-1.8891008,-0.6956228,8.549975
649,6.489999999999906,1.4877697,-2.1731145,-0.41850004,-2.4727826,-0.75884736,8.722697
650,6.499999999999906,1.7949218,-2.0260937,-0.3114816,-2.8327348,-0.8220719,8.776912
651,6.509999999999906,2.0691452,-1.8582181,-0.14653294,-3.1172454,-0.8222246,9.0467615
652,6.519999999999905,2.6847298,-1.6110086,0.054393414,-3.1053336,-1.02717,9.776746
653,6.529999999999905,3.662287,-1.2779404,0.2277572,-3.0198123,-1.2336423,10.085233
654,6.539999999999905,4.9349833,-0.7238837,0.6327808,-2.673299,-1.2095132,10.087371
655,6.549999999999905,6.100783,-0.01103723,0.9100531,-2.4404066,-0.44822237,9.699165
656,6.559999999999905,6.58014,0.54612947,0.95334834,-2.3576343,1.8897116,7.3668823
657,6.569999999999904,6.3853726,1.4161801,1.4996607,-1.9575176,2.1239784,6.5144196
658,6.579999999999904,5.582765,1.6417422,1.3402001,-0.8266534,1.8333594,4.984966
659,6.589999999999904,5.303541,1.685891,1.2081803,-0.46883908,1.6641496,4.5683556
660,6.599999999999904,4.372938,1.7410163,0.5944249,0.18081611,1.3353515,3.252552
661,6.6099999999999035,4.372938,1.7410163,0.5944249,0.18081611,1.3353515,3.252552
662,6.619999999999903,4.372938,1.7410163,0.5944249,0.14721853,1.2293663,2.0172298
663,6.629999999999903,2.602469,1.741687,0.25800288,0.29947668,1.0731375,1.3434454
664,6.639999999999903,2.3597107,1.7398577,0.16055815,0.2883284,1.1189524,1.0813842
665,6.649999999999903,2.1245143,1.747419,0.08256579,0.27137688,1.1577424,1.0016663
666,6.659999999999902,2.016947,1.7549803,0.06335735,0.25320363,1.201572,0.9193522
667,6.669999999999902,2.016947,1.7549803,0.06335735,0.25320363,1.201572,0.9193522
668,6.679999999999902,0.64851344,1.893708,-0.24544115,0.8567385,1.1369729,-0.6082691
669,6.689999999999902,0.4806988,1.8959644,-0.43276918,0.9246973,0.9388999,-1.0595458
670,6.699999999999902,0.37947336,1.8696822,-0.5304578,0.862389,0.70005155,-1.4016303
671,6.709999999999901,0.37947336,1.8696822,-0.5304578,0.6948592,0.3370449,-1.8219056
672,6.719999999999901,0.2762356,1.8506567,-0.47813767,0.6948592,0.3370449,-1.8219056
673,6.729999999999901,0.2762356,1.8506567,-0.47813767,0.6948592,0.3370449,-1.8219056
674,6.739999999999901,0.26550332,1.8027881,-0.20086539,0.6229298,0.0346666,-2.0964894
675,6.7499999999999005,0.50807846,1.6686338,0.48691866,0.9789116,-0.22327125,-2.9310842
676,6.7599999999999,0.8383416,1.5580177,0.62802446,1.3515394,-0.0032070426,-3.4729216
677,6.7699999999999,1.4633172,1.2184248,0.52734786,1.7130189,0.46211955,-4.7142
678,6.7799999999999,1.6895498,1.1410422,0.56661844,1.7559321,0.46670106,-5.129894
679,6.7899999999999,2.233362,0.9816426,0.72803026,1.9074267,0.3996586,-5.608201
680,6.7999999999998995,2.614543,0.8709654,0.89255214,2.1209242,0.3199407,-5.98709
681,6.809999999999899,2.614543,0.8709654,0.89255214,2.1209242,0.3199407,-5.98709
682,6.819999999999899,4.185122,0.70498013,1.2797087,3.140611,-0.44776422,-6.1205645
683,6.829999999999899,5.1792655,0.5975349,1.2666593,3.5123224,-0.7113526,-6.074291
684,6.839999999999899,7.1466365,0.10049367,0.7130294,3.8438694,-0.80878556,-6.4817386
685,6.849999999999898,7.9544272,-0.5635695,-0.13909347,3.0356948,-0.77763146,-7.423998
686,6.859999999999898,7.8520436,-1.1663485,-0.5161886,1.4598153,-0.64980793,-8.322734
687,6.869999999999898,7.183224,-2.0383508,-0.18519373,-0.8219192,-0.15989397,-9.026603
688,6.879999999999898,6.5272713,-2.5506976,0.26044202,-1.8848248,0.43844852,-9.227883
689,6.8899999999998975,5.2232313,-3.187381,1.1576895,-2.4422393,1.6362026,-9.1164
690,6.899999999999897,3.920229,-3.3769655,1.9743836,-1.0369438,2.1499403,-8.597012
691,6.909999999999897,2.722354,-3.5473413,1.9065137,1.7423404,1.6656768,-7.92674
692,6.919999999999897,1.7605907,-3.6218576,1.3587989,3.8044686,0.6250679,-7.2757106
693,6.929999999999897,0.09085896,-3.55661,0.014330104,5.164102,-0.43310347,-6.506784
694,6.9399999999998965,-0.22495215,-3.4788003,-0.33239743,5.370727,-1.2169963,-4.385707
695,6.949999999999896,-0.22495215,-3.4788003,-0.33239743,5.370727,-1.2169963,-4.385707
696,6.959999999999896,-1.0848805,-3.3892224,-0.8235237,3.1282408,-0.0061086523,-2.3080015
697,6.969999999999896,-1.0848805,-3.3892224,-0.8235237,3.1282408,-0.0061086523,-2.3080015
698,6.979999999999896,-1.9867623,-3.5636225,-1.3518472,0.7367035,0.6386596,-0.37201694
699,6.989999999999895,-2.201531,-3.653689,-1.2145221,-0.6621779,0.129198,1.1064297
700,6.999999999999895,-2.1554306,-3.6894836,-0.9226758,-1.4715744,-0.42928556,2.4016168
701,7.009999999999895,-1.9656024,-3.6652138,-0.56485003,-1.9101756,-1.1301007,3.961461
702,7.019999999999895,-1.9656024,-3.6652138,-0.56485003,-1.9101756,-1.1301007,3.961461
703,7.0299999999998946,-1.9656024,-3.6652138,-0.56485003,-1.9101756,-1.1301007,3.961461
704,7.039999999999894,-1.9656024,-3.6652138,-0.56485003,-1.9101756,-1.1301007,3.961461
705,7.049999999999894,0.19165753,-2.8952909,-0.028843146,-1.4237741,-2.1676552,8.196896
706,7.059999999999894,0.71717596,-2.6263118,-0.14872819,-1.594511,-1.8606955,8.507673
707,7.069999999999894,1.085795,-2.403067,-0.24135554,-2.0564778,-1.4326317,8.60083
708,7.0799999999998935,1.085795,-2.403067,-0.24135554,-2.0564778,-1.4326317,8.60083
709,7.089999999999893,1.085795,-2.403067,-0.24135554,-2.0564778,-1.4326317,8.60083
710,7.099999999999893,1.085795,-2.403067,-0.24135554,-2.0564778,-1.4326317,8.60083
711,7.109999999999893,2.5896022,-1.8893176,0.5257014,-3.8250854,-1.0210613,11.128896
712,7.119999999999893,5.1943884,-0.93340814,0.59997404,-3.8157697,-0.6898196,11.401647
713,7.129999999999892,5.1943884,-0.93340814,0.59997404,-3.8157697,-0.6898196,11.401647
714,7.139999999999892,5.1943884,-0.93340814,0.59997404,-3.8157697,-0.6898196,11.401647
715,7.149999999999892,5.1943884,-0.93340814,0.59997404,-3.8157697,-0.6898196,11.401647
716,7.159999999999892,5.1943884,-0.93340814,0.59997404,-3.8157697,-0.6898196,11.401647
717,7.169999999999892,5.4483056,1.264586,2.0568883,-1.0677924,-0.0036651916,5.886603
718,7.179999999999891,5.3528123,1.4835012,1.969932,-0.2706133,-0.10797043,5.4553323
719,7.189999999999891,4.6370387,1.6591213,1.2915388,1.6432275,-0.4885395,4.1954226
720,7.199999999999891,4.030418,1.6827201,0.5605205,2.175902,-0.48517972,3.3999233
721,7.209999999999891,4.030418,1.6827201,0.5605205,1.7284433,0.040775254,2.7721064
722,7.2199999999998905,3.2422013,1.7415041,-0.109884456,1.0013609,0.6238461,2.3504567
723,7.22999999999989,3.1212797,1.7998002,-0.09281029,0.462425,1.0763446,1.9475911
724,7.23999999999989,2.5325868,1.9105383,0.022257395,-0.2669481,1.7386752,0.75487673
725,7.24999999999989,2.0796335,1.9042575,0.14061797,-0.3266602,1.6957619,0.13194689
726,7.25999999999989,1.5708843,1.987189,0.3732535,-0.02977968,1.2939653,-0.4529566
727,7.269999999999889,1.0846975,2.0303013,0.47167388,0.65286225,0.6747007,-1.1446087
728,7.279999999999889,0.3679483,1.9319421,0.20787798,1.3941472,0.28420505,-1.7059939
729,7.289999999999889,0.21312219,1.8449856,0.06085721,1.971873,0.09056077,-2.2264512
730,7.299999999999889,0.21312219,1.8449856,0.06085721,1.971873,0.09056077,-2.2264512
731,7.309999999999889,0.35563052,1.7471142,0.0336605,1.9043725,-0.0983493,-2.5648704
732,7.319999999999888,0.35563052,1.7471142,0.0336605,1.7938058,-0.1337795,-2.8848112
733,7.329999999999888,0.55777645,1.7075387,0.07219934,1.7938058,-0.1337795,-2.8848112
734,7.339999999999888,0.55777645,1.7075387,0.07219934,1.7938058,-0.1337795,-2.8848112
735,7.349999999999888,1.2215346,1.4073381,0.46460027,1.8510745,-0.054825157,-4.1778603
736,7.3599999999998875,1.7856529,1.1806786,0.7308353,2.2745566,0.19181168,-5.0631566
737,7.369999999999887,1.7856529,1.1806786,0.7308353,2.2745566,0.19181168,-5.0631566
738,7.379999999999887,2.8635206,0.9004184,0.9351155,3.1279354,0.28053987,-6.346279
739,7.389999999999887,3.356842,0.76205665,0.9115776,3.7357464,-0.31581733,-6.8783426
740,7.399999999999887,3.8714454,0.6767468,0.8251701,3.997655,-0.8918633,-7.1239104
741,7.4099999999998865,4.6199646,0.42313445,0.7013214,3.9935315,-1.1655309,-7.30381
742,7.419999999999886,5.397815,0.049332146,0.4364279,3.759723,-1.0355693,-7.500356
743,7.429999999999886,6.1167593,-0.5672282,-0.032197,2.969416,-0.6430884,-7.7786055
744,7.439999999999886,6.259268,-1.0607326,-0.54808074,1.9582813,-0.64599,-7.877871
745,7.449999999999886,6.276281,-1.3948984,-0.53009194,0.19318613,-0.65225136,-7.8963494
746,7.459999999999885,6.0637074,-2.0183494,-0.008537084,-1.4175128,-0.35506544,-8.109542
747,7.469999999999885,5.6363654,-2.4008718,0.5025293,-1.9985983,-0.007483099,-8.261495
748,7.479999999999885,4.3711085,-2.8900466,1.5821044,-1.5210545,0.6753115,-8.2845545
749,7.489999999999885,3.4419694,-3.149635,1.8976108,1.9181169,0.5467244,-7.618864
750,7.4999999999998845,1.2882459,-3.5014849,1.0465854,3.8676932,-0.17440203,-6.780146
751,7.509999999999884,1.2882459,-3.5014849,1.0465854,3.8676932,-0.17440203,-6.780146
752,7.519999999999884,-0.20739016,-3.4316638,-0.26452765,4.3817363,-0.73548174,-4.7316093
753,7.529999999999884,-0.9077969,-3.1301825,-0.6495501,2.9680414,-0.35827246,-2.9364293
754,7.539999999999884,-1.1382982,-3.0223715,-0.6200362,1.9963076,0.124311075,-1.8422168
755,7.5499999999998835,-1.3562987,-3.0432873,-0.64192766,1.1485794,0.49434268,-0.6417139
756,7.559999999999883,-1.3562987,-3.0432873,-0.64192766,1.1485794,0.49434268,-0.6417139
757,7.569999999999883,-1.3562987,-3.0432873,-0.64192766,1.1485794,0.49434268,-0.6417139
758,7.579999999999883,-1.3562987,-3.0432873,-0.64192766,1.1485794,0.49434268,-0.6417139
759,7.589999999999883,-1.5417973,-3.4258096,-0.28776067,-1.1953106,-1.0520626,4.158923
760,7.599999999999882,-1.3575182,-3.416297,-0.099822894,-1.4089607,-0.9456194,5.1407366
761,7.609999999999882,-1.1522014,-3.3620255,0.0062808543,-1.4283557,-0.9016371,6.0752077
762,7.619999999999882,-0.87950253,-3.1994548,0.033843435,-1.4227052,-0.89369583,7.2080574
763,7.629999999999882,-0.5945469,-3.1001809,0.041343875,-1.4824172,-0.9147707,8.006611
764,7.6399999999998816,0.5880221,-2.661314,-0.028233355,-1.7146988,-0.8258898,8.841511
765,7.649999999999881,0.5880221,-2.661314,-0.028233355,-2.0263927,-0.6589709,9.132436
766,7.659999999999881,1.1475669,-2.4073966,-0.028660208,-2.4494169,-0.37583485,9.250943
767,7.669999999999881,1.4772813,-2.2137878,-0.021891521,-2.918714,-0.036957346,9.243002
768,7.679999999999881,2.5688086,-1.770835,0.43776944,-3.2653801,0.14874569,9.232617
769,7.6899999999998805,3.1659164,-1.504539,0.5739969,-3.082426,-0.46013424,9.320735
770,7.69999999999988,3.1659164,-1.504539,0.5739969,-3.082426,-0.46013424,9.320735
771,7.70999999999988,3.7163756,-1.299649,0.48978466,-2.8047879,-0.7075347,9.299049
772,7.71999999999988,3.7163756,-1.299649,0.48978466,-2.8047879,-0.7075347,9.299049
773,7.72999999999988,3.7163756,-1.299649,0.48978466,-2.8047879,-0.7075347,9.299049
774,7.739999999999879,4.573194,-0.81797457,0.7019922,-2.7655396,-0.7654142,9.567524
775,7.749999999999879,6.8012505,0.9501164,1.8643161,-2.122146,0.9016371,7.5632753
776,7.759999999999879,6.7824693,1.5392972,1.8846831,-0.35430184,0.68310004,5.9359303
777,7.769999999999879,6.7824693,1.5392972,1.8846831,-0.35430184,0.68310004,5.9359303
778,7.779999999999879,6.7824693,1.5392972,1.8846831,-0.35430184,0.68310004,5.9359303
779,7.789999999999878,6.7824693,1.5392972,1.8846831,-0.35430184,0.68310004,5.9359303
780,7.799999999999878,6.7824693,1.5392972,1.8846831,-0.35430184,0.68310004,5.9359303
781,7.809999999999878,3.8373582,1.8887687,-0.0033538544,0.513585,1.6061175,0.2733622
782,7.819999999999878,2.8372998,1.9153557,-0.13506886,0.1910481,1.9318613,-0.09697486
783,7.8299999999998775,2.8372998,1.9153557,-0.13506886,0.0056505036,2.2785273,-0.88499105
784,7.839999999999877,2.8372998,1.9153557,-0.13506886,0.0056505036,2.2785273,-0.88499105
785,7.849999999999877,2.8372998,1.9153557,-0.13506886,0.0056505036,2.2785273,-0.88499105
786,7.859999999999877,2.1525037,1.9476136,-0.15549688,0.6927212,1.0618365,-1.9790506
787,7.869999999999877,0.1445816,1.7733352,-0.33233646,0.73548174,0.027488936,-2.4724772
788,7.879999999999876,0.11848252,1.7469922,-0.2859923,0.4118759,-0.36086863,-2.7861564
789,7.889999999999876,0.15933856,1.6178993,0.24525821,0.5358815,-0.47861293,-2.8863382
790,7.899999999999876,0.44911155,1.5362481,0.5191157,0.9969321,-0.47128254,-3.1807754
791,7.909999999999876,0.652843,1.4702077,0.6565017,0.9969321,-0.47128254,-3.1807754
792,7.919999999999876,0.8918203,1.2662324,0.72083473,2.1018345,-0.24510968,-4.286747
793,7.929999999999875,0.9851185,1.0673184,0.66863656,2.5951083,-0.13775012,-4.785671
794,7.939999999999875,0.9851185,1.0673184,0.66863656,2.5951083,-0.13775012,-4.785671
795,7.949999999999875,0.9851185,1.0673184,0.66863656,2.5951083,-0.13775012,-4.785671
796,7.959999999999875,1.7607734,0.81638914,0.40904826,2.934444,-0.15760323,-5.578727
797,7.9699999999998745,2.2010431,0.7680936,0.3234335,2.6766589,-0.105068825,-5.9817452
798,7.979999999999874,2.464839,0.75528795,0.37057042,2.5043948,-0.11010846,-6.253275
799,7.989999999999874,3.4856913,0.7188224,0.7247984,2.4759896,-0.5439755,-6.4950247
800,7.999999999999874,4.5012383,0.6027791,0.86748964,2.7317894,-0.9746355,-6.5209866
801,8.009999999999874,5.7240534,0.248795,0.895784,2.7317894,-0.9746355,-6.5209866
802,8.019999999999873,7.016263,-0.69857734,-0.019635292,2.7450757,-1.3521502,-7.6510873
803,8.029999999999873,6.6344724,-1.2836114,-0.69900423,1.0328205,-1.3552046,-8.103433
804,8.039999999999873,6.2333517,-1.9519432,-0.44575772,-1.1827878,-1.1058189,-8.294634
805,8.049999999999873,6.2333517,-1.9519432,-0.44575772,-1.1827878,-1.1058189,-8.294634
806,8.059999999999873,4.551912,-2.8623621,0.9227978,-3.043636,0.70386946,-8.124203
807,8.069999999999872,3.5980759,-3.0336525,1.6150942,-2.477364,1.1997393,-7.79968
808,8.079999999999872,2.206958,-3.094693,1.949382,0.1779145,1.4083499,-6.9507303
809,8.089999999999872,1.2186077,-3.1656725,1.4778911,2.7035367,0.6151413,-6.0800943
810,8.099999999999872,1.2186077,-3.1656725,1.4778911,2.7035367,0.6151413,-6.0800943
811,8.109999999999872,0.6851009,-3.1884787,1.0259744,3.8530326,-0.007788532,-5.566204
812,8.119999999999871,-0.5350922,-3.228847,-0.077809416,4.7714686,-0.7247916,-4.160298
813,8.129999999999871,-1.2465972,-3.1829906,-0.6600995,3.8475347,-0.081397794,-2.6519186
814,8.139999999999871,-1.5507002,-3.2766545,-1.0055465,2.9857566,0.22586742,-1.709201
815,8.14999999999987,-1.949626,-3.360257,-1.2331208,1.8376354,0.3669773,-0.57558775
816,8.15999999999987,-2.3247697,-3.3683064,-1.1978139,0.20311269,0.46318856,1.2353222
817,8.16999999999987,-2.3203182,-3.398308,-0.98737466,-1.6830865,0.18325958,4.6732717
818,8.17999999999987,-1.7746768,-3.4323347,-0.49368733,-1.6830865,0.18325958,4.6732717
819,8.18999999999987,-0.5109445,-3.015115,-0.033416584,-1.7562376,-0.23533584,5.7619863
820,8.19999999999987,-0.5109445,-3.015115,-0.033416584,-1.389413,-0.72616607,6.529844
821,8.20999999999987,-0.06219875,-2.7650394,-0.11390909,-0.9437868,-1.0813842,7.038084
822,8.21999999999987,0.2441606,-2.3407464,-0.447892,-1.3423764,-0.9978484,7.4096427
823,8.229999999999869,0.2441606,-2.3407464,-0.447892,-1.3423764,-0.9978484,7.4096427
824,8.239999999999869,0.638208,-2.2052505,-0.44612357,-2.644741,-0.7339546,8.152608
825,8.249999999999869,1.1696415,-2.1667118,-0.24050182,-3.4808629,-0.4810564,8.552419
826,8.259999999999868,1.1696415,-2.1667118,-0.24050182,-3.4808629,-0.4810564,8.552419
827,8.269999999999868,1.4933189,-2.1157334,-0.025367333,-3.8484511,-0.3915646,8.669705
828,8.279999999999868,2.7695518,-1.7758963,0.7458362,-3.6522105,-0.7985536,9.1533575
829,8.289999999999868,3.424102,-1.5832632,0.8879787,-3.0896037,-1.1779009,9.398314
830,8.299999999999867,4.2317104,-1.2337916,0.8800513,-2.814409,-1.0064005,9.445809
831,8.309999999999867,4.6407585,-0.99213105,0.8251701,-2.891225,-0.40393466,9.426872
832,8.319999999999867,5.6896,-0.47588143,1.1202483,-3.4005342,1.2892311,9.253998
833,8.329999999999867,6.116637,0.1783031,1.4161801,-3.338684,2.1991148,8.610909
834,8.339999999999867,6.033889,0.5996691,1.4993558,-2.9988902,2.5077546,7.920479
835,8.349999999999866,6.071696,0.84230524,1.7174783,-2.0447187,1.9825631,6.935306
836,8.359999999999866,5.908759,1.2071435,2.110001,-0.8561276,1.1087204,6.1500387
837,8.369999999999866,5.2008524,1.4961848,1.8040078,1.5033394,-0.3941608,4.9513683
838,8.379999999999866,4.8118663,1.531065,1.2880019,2.4543037,-0.8552113,4.4490843
839,8.389999999999866,4.1091423,1.7308327,0.20891462,2.0433443,0.45540005,2.8470902
840,8.399999999999865,3.6927154,1.8097397,-0.066223375,2.0433443,0.45540005,2.8470902
841,8.409999999999865,3.6927154,1.8097397,-0.066223375,2.0433443,0.45540005,2.8470902
842,8.419999999999865,3.6927154,1.8097397,-0.066223375,2.0433443,0.45540005,2.8470902
843,8.429999999999865,3.6927154,1.8097397,-0.066223375,1.322676,1.150412,2.2182045
844,8.439999999999864,1.29971,2.3030002,-0.14598413,0.04184427,2.13925,-1.865277
845,8.449999999999864,1.29971,2.3030002,-0.14598413,0.39767328,1.7634152,-2.5050056
846,8.459999999999864,0.54612947,2.1221972,-0.23074517,0.8875872,1.0641272,-2.8183796
847,8.469999999999864,0.54612947,2.1221972,-0.23074517,0.8875872,1.0641272,-2.8183796
848,8.479999999999864,0.54612947,2.1221972,-0.23074517,0.8875872,1.0641272,-2.8183796
849,8.489999999999863,0.54612947,2.1221972,-0.23074517,1.4845552,-0.04184427,-2.9237537
850,8.499999999999863,0.49076036,1.8296189,0.272272,1.9703459,-1.4524848,-3.0776918
851,8.509999999999863,1.0050586,1.7544317,0.4601488,2.029447,-1.2782356,-3.5648568
852,8.519999999999863,1.0050586,1.7544317,0.4601488,2.029447,-1.2782356,-3.5648568
853,8.529999999999863,1.0050586,1.7544317,0.4601488,2.029447,-1.2782356,-3.5648568
854,8.539999999999862,1.0050586,1.7544317,0.4601488,2.029447,-1.2782356,-3.5648568
855,8.549999999999862,1.0050586,1.7544317,0.4601488,2.029447,-1.2782356,-3.5648568
856,8.559999999999862,1.0050586,1.7544317,0.4601488,2.029447,-1.2782356,-3.5648568
857,8.569999999999862,1.0050586,1.7544317,0.4601488,2.029447,-1.2782356,-3.5648568
858,8.579999999999862,4.7077746,0.78925335,1.3161134,3.9147298,-1.5541939,-6.5417557
859,8.589999999999861,5.5632515,0.5073467,1.2803795,4.37181,-1.8565722,-7.4099483
860,8.599999999999861,6.378604,-0.28855342,0.78467995,4.4359508,-2.034334,-8.0779295
861,8.60999999999986,6.4635477,-0.9505433,0.12945877,3.18047,-2.460107,-8.375268
862,8.61999999999986,6.463426,-1.0975641,-0.120189935,3.18047,-2.460107,-8.375268
863,8.62999999999986,6.2904887,-2.1635408,0.014513042,0.051159963,-2.0465512,-8.383362
864,8.63999999999986,6.2904887,-2.1635408,0.014513042,-1.8829921,-1.1070405,-8.586474
865,8.64999999999986,5.344458,-2.9057791,0.9024917,-3.3276885,0.54718256,-8.794475
866,8.65999999999986,3.4001985,-3.3443415,2.0492048,-2.2143865,1.9486601,-8.492249
867,8.66999999999986,1.7924216,-3.5639882,2.1532354,0.9975429,1.4149166,-7.603745
868,8.67999999999986,0.62339,-3.5664277,1.5294795,3.677867,0.1947133,-6.430578
869,8.68999999999986,0.039819397,-3.568135,0.7517512,4.968167,-0.7339546,-5.3029213
870,8.699999999999859,-0.44002566,-3.3905637,-0.22842796,5.064989,-1.2716687,-3.775758
871,8.709999999999859,-0.44002566,-3.3905637,-0.22842796,4.700455,-1.2012665,-3.3379204
872,8.719999999999859,-0.87907565,-3.2345788,-0.7293108,3.1464143,-0.36942077,-2.1975877
873,8.729999999999858,-1.1043937,-3.2733617,-0.8446834,2.1181753,0.31581733,-1.5596917
874,8.739999999999858,-1.1043937,-3.2733617,-0.8446834,0.75334954,0.6921103,-0.56062156
875,8.749999999999858,-2.1184163,-3.5811236,-1.0839658,-0.6291912,0.42088616,0.95615685
876,8.759999999999858,-2.1616507,-3.6397858,-0.91505337,-1.3232869,0.20097467,2.0060816
877,8.769999999999857,-1.7366257,-3.6538715,-0.2128173,-2.1902573,-0.03191771,4.1179953
878,8.779999999999857,-1.7366257,-3.6538715,-0.2128173,-2.355191,-0.15409076,5.438686
879,8.789999999999857,-1.4573412,-3.5947828,-0.099152125,-2.319608,-0.37094793,6.3572745
880,8.799999999999857,-0.72943276,-3.4165406,-0.02872119,-2.032654,-0.9818132,7.911621
881,8.809999999999857,-0.2519659,-3.2616537,-0.047807667,-1.8926133,-1.3153456,8.706662
882,8.819999999999856,0.7158345,-2.9401104,-0.116104335,-2.2134702,-1.2220359,9.609521
883,8.829999999999856,1.5878365,-2.5541735,-0.15305771,-3.0042353,-0.47525316,9.564775
884,8.839999999999856,1.9416376,-2.3318434,-0.18196183,-3.8829648,0.21685717,9.17596
885,8.849999999999856,1.8760241,-2.2745838,-0.13653237,-3.8829648,0.21685717,9.17596
886,8.859999999999856,1.8377903,-2.4045916,0.116592176,-5.3224688,0.7267769,9.351889
887,8.869999999999855,1.9438938,-2.4901452,0.27855286,-5.434868,0.600786,9.672288
888,8.879999999999855,2.8962667,-2.468071,0.9213342,-4.8240027,-0.78786343,11.341935
889,8.889999999999855,5.301651,-1.8918178,1.519235,-3.6625953,-1.6395624,12.23105
890,8.899999999999855,6.7862496,-1.2626346,1.5492977,-3.6625953,-1.6395624,12.23105
891,8.909999999999854,7.873935,-0.22141537,1.3475786,-2.944523,0.35521814,9.58249
892,8.919999999999854,7.623311,0.49984625,1.3688604,-3.425427,1.863139,7.970722
893,8.929999999999854,6.7936893,0.9570071,1.4426452,-3.9232821,3.1926873,6.306878
894,8.939999999999854,5.976568,1.0029244,1.6814395,-3.7232237,3.2763758,5.103932
895,8.949999999999854,5.2300615,1.0738431,1.9625535,-2.8066204,2.4349089,4.266588
896,8.959999999999853,4.405562,1.3953862,2.1432958,-0.8003862,0.66675943,3.488957
897,8.969999999999853,3.9766343,1.5955808,1.4250832,2.4958427,-1.24082,2.0702224
898,8.979999999999853,3.4731297,1.7832749,0.7637641,2.7652342,-0.70952,1.1890492
899,8.989999999999853,3.4731297,1.7832749,0.7637641,2.7652342,-0.70952,1.1890492
900,8.999999999999853,2.970966,1.9146849,0.29952967,2.4223862,0.1001819,0.5290093
901,9.009999999999852,2.970966,1.9146849,0.29952967,2.4223862,0.1001819,0.5290093
902,9.019999999999852,2.145613,2.0453632,-0.21037814,1.421178,1.1540772,-0.57787853
903,9.029999999999852,0.7243715,2.0448754,-0.07012604,0.65316767,0.75243324,-2.1297817
904,9.039999999999852,0.4480749,1.9862134,0.107628234,0.65316767,0.75243324,-2.1297817
905,9.049999999999851,0.22330572,1.9556628,0.27684543,1.229519,-0.17333302,-2.4869852
906,9.059999999999851,0.15476513,1.922917,0.38179058,1.3949108,-0.3284928,-2.4914138
907,9.069999999999851,0.31526232,1.8353509,0.56869173,1.8655825,-0.5635232,-2.4642303
908,9.07999999999985,0.8484642,1.8023003,0.78693616,2.1346686,-0.5056437,-2.7496572
909,9.08999999999985,1.3909957,1.7876045,0.94359165,2.468812,-0.4167628,-3.1558826
910,9.09999999999985,1.3909957,1.7876045,0.94359165,2.468812,-0.4167628,-3.1558826
911,9.10999999999985,1.3909957,1.7876045,0.94359165,2.468812,-0.4167628,-3.1558826
912,9.11999999999985,1.3909957,1.7876045,0.94359165,2.468812,-0.4167628,-3.1558826
913,9.12999999999985,2.2203734,0.48258913,0.91237026,3.869526,-0.36758816,-6.2239532
914,9.13999999999985,3.0755453,0.34105647,1.021645,4.1851907,-0.7476991,-6.2865667
915,9.14999999999985,3.0755453,0.34105647,1.021645,4.5840855,-1.2284501,-6.219677
916,9.15999999999985,3.0755453,0.34105647,1.021645,4.5840855,-1.2284501,-6.219677
917,9.169999999999849,7.0343738,-0.5171033,0.30581054,4.860044,-1.6233743,-6.1672955
918,9.179999999999849,7.0343738,-0.5171033,0.30581054,5.2746687,-2.7198775,-7.3456545
919,9.189999999999849,7.0343738,-0.5171033,0.30581054,5.2746687,-2.7198775,-7.3456545
920,9.199999999999848,7.0343738,-0.5171033,0.30581054,5.2746687,-2.7198775,-7.3456545
921,9.209999999999848,6.1958494,-3.1270118,0.6549772,-3.2481232,-0.50732356,-9.0686
922,9.219999999999848,5.280613,-3.4559944,1.6254607,-3.6080756,1.8011361,-8.994685
923,9.229999999999848,5.280613,-3.4559944,1.6254607,-3.6080756,1.8011361,-8.994685
924,9.239999999999847,3.9357176,-3.6717997,2.4099576,-2.1731532,2.703995,-8.781493
925,9.249999999999847,3.9357176,-3.6717997,2.4099576,-2.1731532,2.703995,-8.781493
926,9.259999999999847,3.9357176,-3.6717997,2.4099576,-2.1731532,2.703995,-8.781493
927,9.269999999999847,-0.35178882,-4.0322475,-0.043722063,5.163644,-1.9590448,-5.0886602
928,9.279999999999847,-1.0051196,-3.6727142,-0.485943,4.094324,-1.5940529,-3.9005272
929,9.289999999999846,-1.3497739,-3.4972773,-0.5880221,2.5305092,-0.36651915,-2.4570527
930,9.299999999999846,-1.6859521,-3.4744103,-0.71595645,1.7163786,0.3559817,-1.6052011
931,9.309999999999846,-2.0332284,-3.5372796,-0.95109206,0.21471913,0.6436992,0.2669481
932,9.319999999999846,-2.0631692,-3.509473,-0.8976743,-0.605062,0.2144137,1.4978416
933,9.329999999999846,-2.043473,-3.521303,-0.51673746,-1.1837041,-0.22876903,2.9738448
934,9.339999999999845,-1.8809025,-3.5247788,-0.24312395,-1.3304645,-0.3510948,4.141819
935,9.349999999999845,-1.6308268,-3.4413593,-0.09738373,-1.2220359,-0.46105054,5.229312
936,9.359999999999845,-1.2561709,-3.2920825,-0.16958307,-0.97051215,-0.6601926,6.453791
937,9.369999999999845,-1.0162787,-3.2283592,-0.21373199,-0.8895725,-0.8428413,7.0973377
938,9.379999999999844,-0.067625895,-2.9633436,-0.38685185,-0.89965177,-1.1942415,7.9979057
939,9.389999999999844,0.4378914,-2.792907,-0.4905774,-1.2768611,-1.1522446,8.345336
940,9.399999999999844,0.9555435,-2.508622,-0.51813996,-1.8000672,-0.86483246,8.422763
941,9.409999999999844,1.1836057,-2.3340385,-0.46923468,-2.8921416,-0.28710666,8.397565
942,9.419999999999844,1.4295957,-2.0851827,0.0026221042,-3.4671185,-0.25870144,8.643437
943,9.429999999999843,1.6491206,-2.0201788,0.2815408,-3.4110715,-0.53221637,9.043707
944,9.439999999999843,1.6491206,-2.0201788,0.2815408,-3.4110715,-0.53221637,9.043707
945,9.449999999999843,3.5996614,-1.4700248,0.9082847,-2.0309741,-1.4995215,10.178237
946,9.459999999999843,4.647161,-1.0667086,1.1121991,-2.0309741,-1.4995215,10.178237
947,9.469999999999843,6.043279,-0.019696271,1.0621351,-0.4905248,-0.90224797,8.863044
948,9.479999999999842,6.043279,-0.019696271,1.0621351,-0.4905248,-0.90224797,8.863044
949,9.489999999999842,5.2382936,0.94157934,0.26355198,-0.4905248,-0.90224797,8.863044
950,9.499999999999842,5.912723,0.64826953,0.503444,-3.4765868,3.47002,6.2485404
951,9.509999999999842,4.796377,0.8979792,0.7138221,-4.083176,4.047135,6.15798
952,9.519999999999841,5.0595636,1.2583661,1.4931968,-3.7739255,3.633121,5.5449767
953,9.529999999999841,4.727044,1.8392537,1.7969952,-0.10567969,0.38774672,3.4197764
954,9.539999999999841,4.472029,2.0066414,1.308491,1.2159272,-0.15943582,2.4834726
955,9.54999999999984,4.472029,2.0066414,1.308491,1.7446312,0.01695151,1.5282321
956,9.55999999999984,4.1694508,2.1529305,0.7144929,1.7446312,0.01695151,1.5282321
957,9.56999999999984,3.495143,2.3335507,-0.019574312,1.30435,0.8897252,0.24953845
958,9.57999999999984,2.5043535,2.3499541,-0.441977,0.6768387,1.5326608,-0.5180137
959,9.58999999999984,1.9983484,2.2177513,-0.40886533,-0.018784106,1.9197967,-1.4708108
960,9.59999999999984,1.4982581,2.028716,-0.19275515,-0.40591997,1.320996,-2.7479773
961,9.60999999999984,0.9736544,1.7891898,0.11049425,-0.08827003,0.64476824,-3.183677
962,9.61999999999984,0.60790133,1.621619,0.37886357,0.46288314,-0.15683965,-3.3315063
963,9.62999999999984,0.45923412,1.5085026,0.6433302,0.46288314,-0.15683965,-3.3315063
964,9.639999999999839,0.50399286,1.4395353,0.7918145,1.5764905,-0.7119634,-3.3131804
965,9.649999999999839,0.68747914,1.3961791,0.89846706,1.9159788,-0.66721755,-3.3895385
966,9.659999999999838,1.1452497,1.3251992,0.9857892,2.5445592,-0.29046643,-3.8997638
967,9.669999999999838,1.5568591,1.1457375,0.91755354,2.9668198,-0.008246681,-4.615087
968,9.679999999999838,1.7566268,0.9629831,0.842854,3.2016973,0.17898351,-5.2261047
969,9.689999999999838,1.7566268,0.9629831,0.842854,3.2016973,0.17898351,-5.2261047
970,9.699999999999838,1.81785,0.877978,0.8128523,3.3208163,0.2950479,-5.632025
971,9.709999999999837,2.602774,0.5265551,0.6608312,3.503312,0.23457226,-6.8038173
972,9.719999999999837,2.988223,0.4370377,0.72424954,3.5576792,-0.1769982,-7.18347
973,9.729999999999837,3.5324013,0.3644115,0.7471777,3.481321,-0.63697976,-7.551516
974,9.739999999999837,4.229637,0.28532153,0.7224812,3.481321,-0.63697976,-7.551516
975,9.749999999999837,5.8958316,-0.56460613,0.57222855,3.0686815,-0.54718256,-8.524625
976,9.759999999999836,5.8958316,-0.56460613,0.57222855,3.0686815,-0.54718256,-8.524625
977,9.769999999999836,5.8958316,-0.56460613,0.57222855,3.0686815,-0.54718256,-8.524625
978,9.779999999999836,6.0807815,-1.7189418,-0.14171559,2.182927,-0.8756753,-8.931308
979,9.789999999999836,6.0807815,-1.7189418,-0.14171559,2.182927,-0.8756753,-8.931308
980,9.799999999999836,6.0807815,-1.7189418,-0.14171559,2.182927,-0.8756753,-8.931308
981,9.809999999999835,6.0807815,-1.7189418,-0.14171559,2.182927,-0.8756753,-8.931308
982,9.819999999999835,4.2929335,-3.146342,0.8613307,-1.2275337,-1.0465649,-8.455444
983,9.829999999999835,1.9001718,-3.3387926,1.6676582,-0.0096211275,1.7072157,-7.1170382
984,9.839999999999835,1.0176814,-3.4461157,1.5100272,1.6821702,1.3038919,-6.392705
985,9.849999999999834,1.0176814,-3.4461157,1.5100272,1.6821702,1.3038919,-6.392705
986,9.859999999999834,1.0176814,-3.4461157,1.5100272,1.6821702,1.3038919,-6.392705
987,9.869999999999834,1.0176814,-3.4461157,1.5100272,1.6821702,1.3038919,-6.392705
988,9.879999999999834,-0.106957465,-3.4727638,0.8455981,3.9492438,-0.13820826,-5.0756793
989,9.889999999999834,-1.6849153,-3.356903,-0.6930283,3.2488868,-0.12034045,-0.16218472
990,9.899999999999833,-1.873524,-3.3804412,-0.97920346,2.0427334,0.5558874,1.5767959
991,9.909999999999833,-1.873524,-3.3804412,-0.97920346,2.0427334,0.5558874,1.5767959
992,9.919999999999833,-1.873524,-3.3804412,-0.97920346,2.0427334,0.5558874,1.5767959
993,9.929999999999833,-1.873524,-3.3804412,-0.97920346,2.0427334,0.5558874,1.5767959
994,9.939999999999833,-0.81827945,-3.4671538,-0.57527745,-1.5677856,0.60903263,6.369034
995,9.949999999999832,-0.29111454,-3.3474514,-0.28105298,-1.9123137,0.19043724,7.7912807
996,9.959999999999832,0.5954616,-2.9218779,-0.12927583,-1.7536414,-0.16707164,7.9565196
997,9.969999999999832,0.5954616,-2.9218779,-0.12927583,-1.7536414,-0.16707164,7.9565196
998,9.979999999999832,0.9856063,-2.373919,-0.3810588,-1.9938642,-1.1383474,8.399397
999,9.989999999999831,1.1400055,-2.1344538,-0.31959182,-2.4065037,-0.99265605,8.804859
1000,9.999999999999831,1.2430604,-2.0998785,-0.21275632,-2.6659687,-0.8750645,9.2468195
