id,timestamp,acc_x,acc_y,acc_z,gyro_x,gyro_y,gyro_z
0,0,0.017866896,-0.32922652,0.04164877,2.5934284,1.2916746,-1.174083
1,0.01,0.01603752,-0.26294217,0.038355898,2.600606,1.4443909,-1.1146764
2,0.02,0.0160985,-0.14067894,0.015000875,2.6572638,1.6548339,-1.0308352
3,0.03,0.024574606,-0.09921311,0.01695221,2.7128525,1.7418822,-1.0210613
4,0.04,0.0070126047,-0.048722353,-0.012073875,2.8312078,1.9549215,-1.016327
5,0.05,0.0029879792,-0.034636166,-0.010854292,2.8312078,1.9549215,-1.016327
6,0.060000000000000005,0.0049393126,-0.032136023,-0.008415125,2.9185615,2.061823,-1.0002918
7,0.07,-0.27458918,0.10970152,-1.4076431,2.9185615,2.061823,-1.0002918
8,0.08,-0.50283426,-0.008720021,-1.4269735,2.278833,1.7050776,-0.91599244
9,0.09,-0.27946752,-0.12951976,-0.772728,-1.744173,-1.9682078,0.15882497
10,0.09999999999999999,-0.17616881,-0.19531627,-0.5262502,-1.8869628,-2.391232,0.20738874
11,0.10999999999999999,-0.018171793,-0.34953257,0.000121958336,-0.77213365,-2.0867157,0.005192355
12,0.11999999999999998,-0.018171793,-0.34953257,0.000121958336,0.5868888,-1.0251846,-0.2180789
13,0.12999999999999998,0.047197875,-0.56070346,0.12567806,1.6392568,0.5175556,-0.57742035
14,0.13999999999999999,0.042441502,-1.1886059,-0.054759294,1.6723963,1.6525432,-0.8352055
15,0.15,0.07415067,-2.037192,-0.143423,1.0364856,2.9153545,-0.9837985
16,0.16,0.23842856,-3.5287426,-0.08738314,-0.8341365,5.3004775,-1.1559098
17,0.17,0.6086331,-4.77973,-0.003963646,-2.3932173,6.7792296,-1.4666874
18,0.18000000000000002,0.9226148,-5.3353724,0.122507155,-3.705356,8.330064,-2.002569
19,0.19000000000000003,1.2100097,-5.2764664,0.30544463,-4.293161,9.97543,-2.7200303
20,0.20000000000000004,1.1524453,-3.6158817,0.45356306,-2.7663033,12.410033,-3.6954293
21,0.21000000000000005,1.0755506,-2.7169268,0.2438557,-2.7663033,12.410033,-3.6954293
22,0.22000000000000006,0.9199927,-2.0738404,0.1598264,-1.637577,12.459971,-3.6409097
23,0.23000000000000007,0.6565627,-1.5633839,0.12854409,-0.960891,11.543215,-3.37106
24,0.24000000000000007,0.6565627,-1.5633839,0.12854409,-0.70371675,9.7677355,-2.4898868
25,0.25000000000000006,0.9169437,-0.25952733,-2.4008718,-3.3374622,-3.3770158,-1.4100296
26,0.26000000000000006,0.6948576,-0.2066584,-1.9091357,-4.052633,-5.057048,-1.125061
27,0.2700000000000001,0.6948576,-0.2066584,-1.9091357,-4.052633,-5.057048,-1.125061
28,0.2800000000000001,0.6972968,-0.100432694,-0.2876997,-5.4197493,-3.3124168,-0.066737026
29,0.2900000000000001,0.804925,-0.064394,0.24464841,-5.18762,-2.4766004,-0.42836925
30,0.3000000000000001,0.8380977,0.061284065,0.4622221,-4.7316093,-2.3441954,-1.0609202
31,0.3100000000000001,0.8380977,0.061284065,0.4622221,-4.7316093,-2.3441954,-1.0609202
32,0.3200000000000001,0.8791367,0.24440451,0.6411349,-3.5514178,-3.1499267,-2.820365
33,0.3300000000000001,0.8210845,0.20903657,0.66638035,-3.0034716,-3.8629591,-3.6129625
34,0.34000000000000014,0.7285791,0.1451914,0.6949796,-2.5289822,-4.827515,-4.0915756
35,0.35000000000000014,0.7285791,0.1451914,0.6949796,-2.5289822,-4.827515,-4.0915756
36,0.36000000000000015,0.7285791,0.1451914,0.6949796,-2.5289822,-4.827515,-4.0915756
37,0.37000000000000016,0.7285791,0.1451914,0.6949796,-2.5289822,-4.827515,-4.0915756
38,0.38000000000000017,0.45911217,0.19214535,0.661502,-2.5289822,-4.827515,-4.0915756
39,0.3900000000000002,0.48356482,0.12336086,0.74443364,-1.6705637,-8.54631,-2.745992
40,0.4000000000000002,0.48356482,0.12336086,0.74443364,-1.6705637,-8.54631,-2.745992
41,0.4100000000000002,0.48356482,0.12336086,0.74443364,-1.6705637,-8.54631,-2.745992
42,0.4200000000000002,0.48356482,0.12336086,0.74443364,-1.6705637,-8.54631,-2.745992
43,0.4300000000000002,0.48356482,0.12336086,0.74443364,-1.6705637,-8.54631,-2.745992
44,0.4400000000000002,0.48356482,0.12336086,0.74443364,-1.6705637,-8.54631,-2.745992
45,0.45000000000000023,0.48356482,0.12336086,0.74443364,-4.543005,10.602941,-1.68553
46,0.46000000000000024,0.48356482,0.12336086,0.74443364,-4.543005,10.602941,-1.68553
47,0.47000000000000025,0.29702953,0.096347086,-0.00219525,-2.2153027,-6.3675065,-1.2768611
48,0.48000000000000026,0.854623,-1.1599457,-0.43337893,-0.59803706,11.8886595,-0.94913185
49,0.49000000000000027,0.854623,-1.1599457,-0.43337893,-0.59803706,11.8886595,-0.94913185
50,0.5000000000000002,0.854623,-1.1599457,-0.43337893,-0.59803706,11.8886595,-0.94913185
51,0.5100000000000002,-0.06591848,-1.0729284,0.33599523,3.9779544,0.10797043,7.383528
52,0.5200000000000002,-0.012683666,-0.9287127,0.38544932,4.709313,0.28603765,8.198575
53,0.5300000000000002,0.039941356,-0.86968493,0.304347,5.2613826,0.32345316,8.824559
54,0.5400000000000003,0.19574313,-0.9459698,0.21964696,5.48389,0.3678936,9.050885
55,0.5500000000000003,0.33032414,-0.9954239,0.19379179,5.5715494,0.44409904,9.042485
56,0.5600000000000003,0.54369026,-1.0028634,0.21208555,5.7618337,0.38637227,8.023715
57,0.5700000000000003,0.6980285,-0.95225066,0.19891405,5.882785,0.01695151,7.092451
58,0.5800000000000003,0.6980285,-0.95225066,0.19891405,5.882785,0.01695151,7.092451
59,0.5900000000000003,0.6632704,-0.8356585,0.14305714,5.927378,-0.48365256,6.009692
60,0.6000000000000003,0.35563052,-0.4167926,0.04853942,5.865528,-1.5939001,4.215581
61,0.6100000000000003,0.25635642,-0.2836141,0.0052442085,5.837581,-2.0676262,3.539506
62,0.6200000000000003,0.17440042,-0.2139759,-0.03469715,5.807954,-2.3539693,3.1380148
63,0.6300000000000003,0.40612125,-0.2365382,-5.591363,4.0808854,-1.5807666,2.7191138
64,0.6400000000000003,0.10689648,-0.35904533,-3.442823,4.0808854,-1.5807666,2.7191138
65,0.6500000000000004,0.13397123,-0.15470415,0.12884897,-4.868596,1.5242615,1.9734001
66,0.6600000000000004,0.17464434,-0.18013246,0.17147341,-4.6793804,1.024421,1.6914859
67,0.6700000000000004,0.27123535,-0.25721014,0.25867364,-4.3333254,0.39721513,1.1775955
68,0.6800000000000004,0.39697438,-0.43270817,0.31812832,-4.005596,-0.033750303,0.57711494
69,0.6900000000000004,0.47466183,-0.65766037,0.3840468,-3.630372,-0.32055154,-0.16691893
70,0.7000000000000004,0.5817413,-1.0151201,0.4173414,-3.1125112,-0.49006665,-1.3348932
71,0.7100000000000004,0.690833,-1.4043502,0.4124631,-2.9068022,-0.52015173,-1.9097174
72,0.7200000000000004,1.4883186,-3.9593773,0.7505926,-2.1636846,-0.2863431,-4.417472
73,0.7300000000000004,1.4883186,-3.9593773,0.7505926,-1.1487321,1.0345002,-6.0460386
74,0.7400000000000004,1.4883186,-3.9593773,0.7505926,-1.1487321,1.0345002,-6.0460386
75,0.7500000000000004,1.9266977,-5.3585443,0.38770556,2.8955014,6.1211753,-8.814939
76,0.7600000000000005,1.3632503,-3.9169362,-0.03280679,2.9544497,4.86096,-5.529552
77,0.7700000000000005,0.60759646,-2.2255566,-3.61515,2.9544497,4.86096,-5.529552
78,0.7800000000000005,0.60759646,-2.2255566,-3.61515,2.1606305,6.2717533,-1.7539468
79,0.7900000000000005,1.1546406,-1.2004968,-2.0677426,-4.3574543,1.0201449,1.53205
80,0.8000000000000005,1.226535,-1.2714766,-0.6617459,-4.3574543,1.0201449,1.53205
81,0.8100000000000005,1.0598788,-1.1146382,0.3770342,-3.1317534,-1.7960966,0.30726522
82,0.8200000000000005,0.82754827,-0.91621196,0.389352,-1.7249308,-1.8443549,-0.35903606
83,0.8300000000000005,0.60466945,-0.6250365,0.13159303,-0.9789116,-2.080607,-0.6786713
84,0.8400000000000005,0.37764397,-0.29373667,-0.37916848,-0.6919576,-2.2146919,-0.9773844
85,0.8500000000000005,0.23623328,-0.029209021,-0.7123586,-1.2003502,-2.2609649,-1.1223122
86,0.8600000000000005,0.18684018,0.05713748,-0.47258857,-1.86207,-2.4801128,-1.2038627
87,0.8700000000000006,0.13848369,0.07469948,-0.07469948,-2.4071145,-2.905886,-1.2910637
88,0.8800000000000006,0.15494807,0.07128465,0.18915738,-2.4912612,-3.384957,-1.3422236
89,0.8900000000000006,0.1981823,0.058296088,0.3081887,-2.3159428,-3.9700131,-1.4341589
90,0.9000000000000006,0.22915971,0.04896627,0.38801044,-2.113441,-4.4350343,-1.5300647
91,0.9100000000000006,0.35904533,0.0046344167,0.5891807,-1.0616838,-6.231131,-2.2366831
92,0.9200000000000006,0.35904533,0.0046344167,0.5891807,-1.0616838,-6.231131,-2.2366831
93,0.9300000000000006,0.19629194,-0.020732917,0.44655046,-1.0616838,-6.231131,-2.2366831
94,0.9400000000000006,0.19629194,-0.020732917,0.44655046,-1.0616838,-6.231131,-2.2366831
95,0.9500000000000006,0.16500962,-0.027318668,0.41465837,-0.7677049,-7.43087,-2.5332582
96,0.9600000000000006,0.17421748,-0.053234816,0.38483953,-1.2281445,-7.6127553,-2.316401
97,0.9700000000000006,0.24745347,-0.06305246,0.3793514,-2.0325015,-6.297715,-1.8338175
98,0.9800000000000006,0.4279518,-0.19799936,0.3477642,-2.3794727,-5.0385695,-1.5512923
99,0.9900000000000007,0.4279518,-0.19799936,0.3477642,-2.4894285,-4.050342,-1.4153748
100,1.0000000000000007,0.5135056,-0.3050178,0.23684308,-2.4894285,-4.050342,-1.4153748
101,1.0100000000000007,0.5135056,-0.3050178,0.23684308,-2.4894285,-4.050342,-1.4153748
102,1.0200000000000007,0.9145046,-0.8834662,-1.6807687,-3.5204165,-1.1824824,-1.4752395
103,1.0300000000000007,0.9145046,-0.8834662,-1.6807687,-3.5204165,-1.1824824,-1.4752395
104,1.0400000000000007,0.9145046,-0.8834662,-1.6807687,-3.5204165,-1.1824824,-1.4752395
105,1.0500000000000007,0.9145046,-0.8834662,-1.6807687,-3.5204165,-1.1824824,-1.4752395
106,1.0600000000000007,0.9145046,-0.8834662,-1.6807687,-3.5204165,-1.1824824,-1.4752395
107,1.0700000000000007,0.9131021,-2.128051,-0.59338826,-2.8470902,13.174378,-3.2501085
108,1.0800000000000007,0.12750745,-1.1054914,0.31300604,6.4137797,-2.3092234,5.8551435
109,1.0900000000000007,0.1255561,-0.93456674,0.11451888,7.0951996,-1.9639318,6.1969223
110,1.1000000000000008,0.13744704,-0.82773125,-0.021220751,7.3105297,-1.3374895,6.2641177
111,1.1100000000000008,0.1454963,-0.8102302,-0.055430062,7.2880807,-0.9763154,6.2589254
112,1.1200000000000008,0.1454963,-0.8102302,-0.055430062,7.2880807,-0.9763154,6.2589254
113,1.1300000000000008,0.1454963,-0.8102302,-0.055430062,7.2880807,-0.9763154,6.2589254
114,1.1400000000000008,0.34813008,-0.6098527,-0.4077067,6.0574923,0.09636399,5.62164
115,1.1500000000000008,0.3918521,-0.43429363,-0.005427146,5.0378056,0.50411654,4.353331
116,1.1600000000000008,0.30398116,-0.2826994,0.017135147,4.8246136,0.40882155,3.641673
117,1.1700000000000008,0.30398116,-0.2826994,0.017135147,4.8246136,0.40882155,3.641673
118,1.1800000000000008,0.30398116,-0.2826994,0.017135147,4.8246136,0.40882155,3.641673
119,1.1900000000000008,0.30398116,-0.2826994,0.017135147,4.8246136,0.40882155,3.641673
120,1.2000000000000008,0.06256463,-0.06738198,-0.29885888,4.4559565,0.13271047,2.54685
121,1.2100000000000009,0.06256463,-0.06738198,-0.29885888,4.4559565,0.13271047,2.54685
122,1.2200000000000009,-0.25788093,-0.27556485,-2.0915854,-2.706744,4.205044,2.8861856
123,1.2300000000000009,0.02713573,-0.13214186,-0.07616298,-4.1557164,4.442212,2.767067
124,1.2400000000000009,0.022562291,-0.1042134,0.121775396,-4.1496077,3.9903245,2.5231788
125,1.2500000000000009,0.07634591,-0.10982348,0.10921369,-4.0378194,3.5315647,2.234545
126,1.260000000000001,0.1884866,-0.19812131,0.16165577,-3.8521163,2.9434543,1.6203201
127,1.270000000000001,0.27776012,-0.39618164,0.22537899,-3.653585,2.5703683,1.0517572
128,1.280000000000001,0.3641676,-0.8210235,0.2675156,-3.2551482,2.2124012,0.029321533
129,1.290000000000001,0.28995594,-1.5294795,0.45825842,-2.4544566,1.8057177,-1.0306823
130,1.300000000000001,0.0863465,-2.6264338,0.7104073,-0.64553183,0.8184067,-1.9743165
131,1.310000000000001,-0.09518848,-5.612705,0.3925229,2.3113613,-0.37400225,-2.9000828
132,1.320000000000001,-0.09518848,-5.612705,0.3925229,2.3113613,-0.37400225,-2.9000828
133,1.330000000000001,0.007073583,-6.1256623,0.2687352,2.262034,0.046578474,-2.9633074
134,1.340000000000001,0.045063604,-6.251889,0.20001167,1.92392,0.24037547,-2.5955665
135,1.350000000000001,-0.02128173,-3.4609945,0.5549104,4.1002803,1.9637791,0.2406809
136,1.360000000000001,0.15909465,-2.1589675,-1.7696764,6.0156484,3.4492507,1.093296
137,1.370000000000001,0.4735032,-1.0226816,-6.4674506,2.150551,4.2649083,1.3150401
138,1.380000000000001,0.49332145,-1.1008569,-4.170548,-2.7285824,3.6645806,0.86590147
139,1.390000000000001,0.4494165,-1.2948316,-1.7213198,-4.827668,3.2748485,0.44211373
140,1.400000000000001,0.39294976,-1.1168944,-0.100859545,-4.827668,3.2748485,0.44211373
141,1.410000000000001,0.39294976,-1.1168944,-0.100859545,-4.827668,3.2748485,0.44211373
142,1.420000000000001,0.39294976,-1.1168944,-0.100859545,-4.827668,3.2748485,0.44211373
143,1.430000000000001,0.20037755,-0.39410836,0.25916147,-4.534453,1.5749633,-1.9885191
144,1.440000000000001,0.19129165,-0.22690348,0.2911755,-4.2919393,1.4272866,-2.211485
145,1.450000000000001,0.13116619,-0.1030548,0.28465074,-3.9144244,1.1910346,-2.5567765
146,1.460000000000001,0.09031015,-0.017074168,0.42057332,-3.5462255,1.0661125,-2.724001
147,1.470000000000001,0.06786981,0.012012896,0.40490165,-3.0454686,0.91522884,-2.8915308
148,1.480000000000001,0.072870106,-0.013781292,0.40673104,-2.7044532,0.46929723,-3.0343204
149,1.490000000000001,-0.011829958,-0.092505395,0.6412569,-2.3472497,-0.52580225,-3.1172454
150,1.500000000000001,-0.014574022,-0.074272625,0.71260256,-1.3112222,-4.8742466,-3.019354
151,1.5100000000000011,-0.024696562,-0.04762473,0.6805275,-1.0288498,-6.7922106,-2.9191723
152,1.5200000000000011,-0.024696562,-0.04762473,0.6805275,-1.0288498,-6.7922106,-2.9191723
153,1.5300000000000011,-0.050429773,-0.021525647,0.65412354,-1.0358747,-8.942609,-2.6558893
154,1.5400000000000011,0.014635001,0.024818521,0.70150435,-1.4146112,-9.592112,-1.9926424
155,1.5500000000000012,0.024818521,0.013415418,0.61985326,-1.6427693,-9.3244,-1.6734654
156,1.5600000000000012,0.024818521,0.013415418,0.61985326,-1.6427693,-9.3244,-1.6734654
157,1.5700000000000012,0.22708642,-0.3175795,-0.37355837,-1.9734001,-6.0365705,-0.5500842
158,1.5800000000000012,0.50722474,-1.0081075,-2.8192499,-3.6187658,-2.3803892,-0.6892087
159,1.5900000000000012,0.43478146,-0.8974304,-0.72394466,-7.1648383,5.724724,-1.7003434
160,1.6000000000000012,0.3802661,-0.7575442,0.42429304,-6.7228775,7.677049,-2.331978
161,1.6100000000000012,0.3802661,-0.7575442,0.42429304,-6.7228775,7.677049,-2.331978
162,1.6200000000000012,0.3802661,-0.7575442,0.42429304,-6.7228775,7.677049,-2.331978
163,1.6300000000000012,-0.61015755,-1.575092,-0.6222924,4.660138,6.106362,0.23945917
164,1.6400000000000012,-0.61015755,-1.575092,-0.6222924,4.660138,6.106362,0.23945917
165,1.6500000000000012,-0.6494281,-1.4027038,-0.3012371,5.0498705,2.2403483,2.0468566
166,1.6600000000000013,-0.5596668,-1.212022,-0.12336086,4.876079,0.22128594,5.9548674
167,1.6700000000000013,-0.43978173,-1.1173823,-0.032197,4.876079,0.22128594,5.9548674
168,1.6800000000000013,-0.18562058,-1.2126927,0.22684251,4.3576074,1.4338534,8.386111
169,1.6900000000000013,-0.04853942,-1.2188516,0.245868,4.272697,1.7047722,8.725752
170,1.7000000000000013,0.3006273,-1.2812942,0.31300604,4.272697,1.7047722,8.725752
171,1.7100000000000013,0.3006273,-1.2812942,0.31300604,4.272697,1.7047722,8.725752
172,1.7200000000000013,0.3006273,-1.2812942,0.31300604,4.272697,1.7047722,8.725752
173,1.7300000000000013,0.3006273,-1.2812942,0.31300604,4.272697,1.7047722,8.725752
174,1.7400000000000013,0.6404642,-0.7322379,0.07524829,2.9659035,-1.8411479,5.3898168
175,1.7500000000000013,0.4480749,-0.36313096,0.031282313,2.513863,-3.4833064,3.797291
176,1.7600000000000013,0.33648303,-0.20397532,0.029513916,2.3506095,-4.2180247,2.9404
177,1.7700000000000014,0.21275632,-0.08396832,0.001097625,2.2957842,-4.551099,2.46927
178,1.7800000000000014,0.120494835,-0.02268425,-0.019574312,2.2580633,-4.754517,2.0734293
179,1.7900000000000014,0.08299265,-0.0064028124,-0.033294626,2.2484422,-4.8098,1.9048306
180,1.8000000000000014,0.04847844,-0.0066467295,-0.042441502,2.2450824,-4.8455358,1.6957619
181,1.8100000000000014,0.04847844,-0.0066467295,-0.042441502,2.2450824,-4.8455358,1.6957619
182,1.8200000000000014,0.04847844,-0.0066467295,-0.042441502,2.2450824,-4.8455358,1.6957619
183,1.8300000000000014,0.04847844,-0.0066467295,-0.042441502,2.2450824,-4.8455358,1.6957619
184,1.8400000000000014,0.097749606,-0.15665549,0.042746395,-3.2798882,1.737148,2.140319
185,1.8500000000000014,0.2089756,-0.5599107,0.079029,-3.1951306,1.1340714,0.9993755
186,1.8600000000000014,0.2093415,-1.056647,0.34148335,-2.5662448,1.14018,0.076052725
187,1.8700000000000014,0.2093415,-1.056647,0.34148335,-2.5662448,1.14018,0.076052725
188,1.8800000000000014,0.0775655,-2.0282283,0.6444889,-0.0421497,0.8597928,-1.3185526
189,1.8900000000000015,0.0775655,-2.0282283,0.6444889,-0.0421497,0.8597928,-1.3185526
190,1.9000000000000015,-1.3151987,-6.28433,0.29983455,1.9721785,4.184274,-1.161713
191,1.9100000000000015,-1.1133577,-5.502882,-0.32075045,3.4460435,4.893489,-0.0421497
192,1.9200000000000015,-0.5391778,-3.2763495,-2.9485257,4.028351,5.4276905,0.44135013
193,1.9300000000000015,-0.19153556,-2.2524486,-4.3669624,2.4802656,6.129269,0.3173445
194,1.9400000000000015,0.0866514,-1.6904035,-2.6099083,-2.1160371,6.330855,-0.5235115
195,1.9500000000000015,0.0866514,-1.6904035,-2.6099083,-3.4246633,5.2667274,-1.0673343
196,1.9600000000000015,0.034514207,-1.7356501,-1.4466697,-3.4246633,5.2667274,-1.0673343
197,1.9700000000000015,0.10512808,-1.185679,0.26062497,-3.4542902,1.4369078,-1.7695239
198,1.9800000000000015,0.1797666,-0.87803906,0.319043,-3.037222,0.55924714,-1.9590448
199,1.9900000000000015,0.26586917,-0.5161886,0.36172843,-2.558609,-0.2134974,-2.3576343
200,2.0000000000000013,0.2394042,-0.28495565,0.33617815,-2.2343924,-0.49037206,-2.7704265
201,2.010000000000001,0.21239044,-0.10701844,0.25044146,-2.1363485,-0.6000224,-3.04104
202,2.020000000000001,0.14848427,-0.004268542,0.19440159,-2.0164661,-0.6571383,-3.353192
203,2.0300000000000007,0.09238344,0.019086478,0.13945936,-2.021353,-0.77442443,-3.4225252
204,2.0400000000000005,0.086163566,0.029818814,0.16952209,-2.038152,-1.0884092,-3.4860551
205,2.0500000000000003,0.07219934,0.031831127,0.19806033,-2.038152,-1.0884092,-3.4860551
206,2.06,-0.018537667,-0.020793896,0.38983983,-2.3328943,-4.1938953,-3.2672129
207,2.07,-0.018537667,-0.020793896,0.38983983,-2.3328943,-4.1938953,-3.2672129
208,2.0799999999999996,-0.08439517,-0.021159772,0.54216576,-2.588847,-7.5157804,-2.6911669
209,2.0899999999999994,-0.08256579,-0.027257688,0.60466945,-2.588847,-7.5157804,-2.6911669
210,2.099999999999999,-0.020062147,-0.040734082,0.70241904,-2.588847,-7.5157804,-2.6911669
211,2.109999999999999,0.051649354,-0.081773065,0.8210845,-3.110373,-9.132282,-0.8576548
212,2.1199999999999988,0.13793488,-0.13037346,0.85175705,-3.0233247,-7.9152865,-0.36667186
213,2.1299999999999986,0.19062088,-0.22787915,0.90273565,-2.7267497,-5.732665,0.089949906
214,2.1399999999999983,0.1908648,-0.34398347,0.7019312,-2.4058928,-4.083787,0.2527455
215,2.149999999999998,0.004573438,-1.0751847,-1.2309254,-3.431841,2.6207647,0.3642284
216,2.159999999999998,0.34319076,-0.880966,-0.14031307,-4.906164,9.066156,-0.2012801
217,2.1699999999999977,0.47295445,-0.7399822,0.55417866,-4.906164,9.066156,-0.2012801
218,2.1799999999999975,0.3272142,-1.1397007,-0.39215705,-2.736829,11.979831,-1.8952094
219,2.1899999999999973,0.13250773,-1.8389488,-0.74418974,-0.2612976,13.619699,-2.118786
220,2.199999999999997,-0.8122425,-1.5947273,-0.5821681,6.137821,8.27814,-0.7791586
221,2.209999999999997,-0.8122425,-1.5947273,-0.5821681,7.6303177,3.6076174,0.63178736
222,2.2199999999999966,-0.8122425,-1.5947273,-0.5821681,7.6303177,3.6076174,0.63178736
223,2.2299999999999964,-0.8122425,-1.5947273,-0.5821681,7.6303177,3.6076174,0.63178736
224,2.239999999999996,-0.7127855,-1.3441027,-0.29087064,7.5535016,-0.67256266,4.285983
225,2.249999999999996,-0.3447762,-1.6905864,0.07183346,5.0933943,1.4349225,7.629707
226,2.259999999999996,-0.3447762,-1.6905864,0.07183346,5.0933943,1.4349225,7.629707
227,2.2699999999999956,-0.3447762,-1.6905864,0.07183346,5.0933943,1.4349225,7.629707
228,2.2799999999999954,0.19836523,-1.6232654,-0.032745812,2.6340508,1.412015,7.5910697
229,2.289999999999995,0.46905175,-0.901638,0.009817646,-0.2171626,-2.1300871,4.415487
230,2.299999999999995,0.42215878,-0.485821,0.11634825,-0.6401868,-3.4115298,3.0369165
231,2.3099999999999947,0.29129747,-0.27952853,0.11397006,-0.6401868,-3.4115298,3.0369165
232,2.3199999999999945,0.16348514,-0.111165024,0.123299874,-0.60154957,-4.1737366,1.8255708
233,2.3299999999999943,0.14933798,-0.042502478,0.13299556,-0.45875978,-4.2939243,1.6653714
234,2.339999999999994,0.0918956,0.022806209,0.08482202,-0.15760323,-4.2777367,1.446987
235,2.349999999999994,0.0600035,0.031709168,0.052746978,0.082619525,-4.032169,1.3399329
236,2.3599999999999937,0.041404855,0.044758707,0.049454104,0.082619525,-4.032169,1.3399329
237,2.3699999999999934,0.041404855,0.044758707,0.049454104,0.082619525,-4.032169,1.3399329
238,2.3799999999999932,0.041404855,0.044758707,0.049454104,0.27107146,-3.778507,1.2483032
239,2.389999999999993,0.016586334,0.06695513,0.03286777,0.6927212,-3.1488576,1.0097603
240,2.399999999999993,-0.257515,-0.34904477,-1.7775427,-2.6626089,3.0279064,0.8923214
241,2.4099999999999926,-0.021098793,-0.42313445,0.44587967,0.9622655,0.7237226,-0.3023783
242,2.4199999999999924,-0.021098793,-0.42313445,0.44587967,0.9622655,0.7237226,-0.3023783
243,2.429999999999992,-0.021098793,-0.42313445,0.44587967,0.9622655,0.7237226,-0.3023783
244,2.439999999999992,-0.021098793,-0.42313445,0.44587967,0.9622655,0.7237226,-0.3023783
245,2.4499999999999917,-0.45240447,-1.6984527,0.2598932,3.3382258,-1.102001,-1.1644619
246,2.4599999999999915,-1.5905195,-4.5025797,0.21135378,-0.25045475,4.176944,-0.017256944
247,2.4699999999999913,-1.9867623,-5.9133325,0.11506769,-1.9532416,6.12988,0.5891795
248,2.479999999999991,-1.9388937,-5.876745,0.035672814,-3.216511,6.899265,1.0297661
249,2.489999999999991,-1.352213,-4.638563,0.79626596,1.021214,-0.45265114,1.1940888
250,2.4999999999999907,-0.84382975,-3.038775,-0.07110171,4.1506767,-5.781687,1.1183416
251,2.5099999999999905,-0.84382975,-3.038775,-0.07110171,4.1506767,-5.781687,1.1183416
252,2.5199999999999902,-0.84382975,-3.038775,-0.07110171,4.1506767,-5.781687,1.1183416
253,2.52999999999999,-0.84382975,-3.038775,-0.07110171,4.1506767,-5.781687,1.1183416
254,2.53999999999999,0.06915038,-0.922005,-0.99829,-3.7557523,9.44245,-0.72402805
255,2.5499999999999896,0.0834195,-0.68003964,-0.21458568,-4.062865,8.66772,-1.6500998
256,2.5599999999999894,0.13458103,-0.5394827,0.27379647,-3.6496143,7.1788883,-2.2849414
257,2.569999999999989,0.13458103,-0.5394827,0.27379647,-3.6496143,7.1788883,-2.2849414
258,2.579999999999989,0.25129515,-0.20208496,0.61601156,-2.3719897,4.5329256,-3.3939674
259,2.5899999999999888,0.128788,0.0023172083,0.46264893,-1.884672,3.789808,-3.6532795
260,2.5999999999999885,0.10476221,0.00219525,0.3269093,-0.8536842,0.5390886,-4.1153994
261,2.6099999999999883,0.10476221,0.00219525,0.3269093,-0.8536842,0.5390886,-4.1153994
262,2.619999999999988,-0.02695279,-0.060491335,0.327824,-0.9567677,-2.9232957,-4.1641154
263,2.629999999999988,-0.110006414,-0.058357064,0.39081547,-0.9567677,-2.9232957,-4.1641154
264,2.6399999999999877,-0.155131,-0.03744121,0.4612464,-1.5868752,-7.1608677,-3.7665951
265,2.6499999999999875,-0.13952033,-0.016586334,0.5464343,-2.1183279,-9.118997,-3.3434181
266,2.6599999999999873,-0.10799411,-0.024330689,0.66479486,-2.1183279,-9.118997,-3.3434181
267,2.669999999999987,-0.06829667,-0.058052167,0.7118708,-2.9374983,-10.133033,-2.2777638
268,2.679999999999987,-0.015854584,-0.10482319,0.75882477,-3.0526464,-9.416488,-1.7736472
269,2.6899999999999866,0.12110463,-0.2800773,0.86761165,-2.7823384,-7.622224,-1.3242031
270,2.6999999999999864,0.0307335,-0.55667883,0.35691106,-2.3890939,-5.554292,-1.1125383
271,2.709999999999986,-0.4437454,-1.5684452,-1.7366867,-4.7516155,3.2916474,-0.82986045
272,2.719999999999986,0.31251824,-1.2064118,0.3999014,-5.9730406,10.734735,-1.3416128
273,2.7299999999999858,0.43154958,-1.1698854,0.9123093,-5.1983104,12.137434,-2.0215058
274,2.7399999999999856,0.29672462,-1.9676758,-0.31453055,-2.004707,13.624433,-2.9152017
275,2.7499999999999853,-0.41752437,-1.9487722,-0.35459387,4.5657597,9.821796,-1.6690365
276,2.759999999999985,-0.41752437,-1.9487722,-0.35459387,6.1636305,7.2077518,-0.86269444
277,2.769999999999985,-0.41752437,-1.9487722,-0.35459387,6.1636305,7.2077518,-0.86269444
278,2.7799999999999847,-0.70400447,-1.2133635,-0.418622,7.4795866,-0.12034045,3.4330628
279,2.7899999999999845,-0.44472107,-1.1234192,-0.2222081,6.2318945,-0.57879484,5.5729237
280,2.7999999999999843,-0.22385453,-1.0106688,0.00085370836,6.2318945,-0.57879484,5.5729237
281,2.809999999999984,-0.120494835,-0.9462137,0.008354146,3.7459784,0.76083267,7.45897
282,2.819999999999984,-0.120494835,-0.9462137,0.008354146,3.7459784,0.76083267,7.45897
283,2.8299999999999836,-0.120494835,-0.9462137,0.008354146,3.7459784,0.76083267,7.45897
284,2.8399999999999834,0.26007617,-0.5889368,-0.094517715,3.0980031,0.7101309,7.3057957
285,2.849999999999983,0.26007617,-0.5889368,-0.094517715,3.0980031,0.7101309,7.3057957
286,2.859999999999983,0.21611017,-0.6788201,-0.078785084,2.2029328,0.043066,6.649574
287,2.869999999999983,0.26403978,-0.12549512,0.021159772,0.39584067,-3.328452,3.5947893
288,2.8799999999999826,0.1853157,-0.061710916,0.003963646,0.4428773,-3.5413384,3.1677945
289,2.8899999999999824,0.13866661,-0.023964813,0.015244792,0.5366451,-3.5715764,2.8774807
290,2.899999999999982,0.12055582,-0.0075004376,0.017257104,0.65240407,-3.5052974,2.6955955
291,2.909999999999982,0.098054506,0.010854292,0.00951275,0.7790059,-3.4290922,2.5248587
292,2.9199999999999817,0.072992064,0.026343001,0.023720896,0.91889405,-3.3454034,2.372448
293,2.9299999999999815,0.0658575,0.018964522,0.012500729,1.1665999,-3.219718,2.1716259
294,2.9399999999999813,0.10317675,-0.008781,-0.04914921,1.3035865,-3.1375566,1.8858937
295,2.949999999999981,-0.14305714,-0.44575772,-1.7630297,0.56382865,-2.0528126,1.4987578
296,2.959999999999981,-0.14305714,-0.44575772,-1.7630297,-2.5938866,2.6004534,1.2272283
297,2.9699999999999807,0.01323248,-0.5052124,-0.42063433,-3.5873063,3.4429893,0.7452556
298,2.9799999999999804,-0.2122075,-1.0079857,-0.3884373,-2.579073,-0.08933904,-0.926988
299,2.9899999999999802,-1.7462604,-3.5911243,0.23416002,-0.4961753,-5.3823338,-2.641534
300,2.99999999999998,-2.7096093,-4.7867427,0.52765274,-0.4961753,-5.3823338,-2.641534
301,3.00999999999998,-3.2992167,-5.671428,0.69150376,-0.4961753,-5.3823338,-2.641534
302,3.0199999999999796,-3.2992167,-5.671428,0.69150376,-0.4633413,-2.5804474,-0.83001316
303,3.0299999999999794,-2.3955054,-5.3200665,0.6304636,0.36102137,-0.6560693,1.0329732
304,3.039999999999979,-1.291112,-3.146464,0.028111396,3.1764994,-1.4905112,0.7959574
305,3.049999999999979,-0.77974063,-2.0972564,-1.402155,3.6667187,-0.9993755,0.7530441
306,3.0599999999999787,-0.77974063,-2.0972564,-1.402155,2.2510383,4.721988,0.50885075
307,3.0699999999999785,-0.01750102,-1.0323772,-1.8154109,-0.016035212,8.946885,-0.25442538
308,3.0799999999999783,-0.01750102,-1.0323772,-1.8154109,-0.016035212,8.946885,-0.25442538
309,3.089999999999978,-0.01750102,-1.0323772,-1.8154109,-0.016035212,8.946885,-0.25442538
310,3.099999999999978,-0.00512225,-0.76528853,-0.6252194,-1.6189456,8.249735,-1.7321084
311,3.1099999999999777,0.05585692,-0.28843147,0.07128465,-1.9613355,4.664567,-2.8009698
312,3.1199999999999775,0.05585692,-0.28843147,0.07128465,-1.9613355,4.664567,-2.8009698
313,3.1299999999999772,0.05585692,-0.28843147,0.07128465,-1.9613355,4.664567,-2.8009698
314,3.139999999999977,0.05585692,-0.28843147,0.07128465,-1.9613355,4.664567,-2.8009698
315,3.149999999999977,0.05585692,-0.28843147,0.07128465,-1.9613355,4.664567,-2.8009698
316,3.1599999999999766,0.056771606,-0.05232013,0.13610551,-1.863139,2.541352,-3.608839
317,3.1699999999999764,0.056771606,-0.05232013,0.13610551,-1.8619173,1.6916386,-3.7545304
318,3.179999999999976,-0.041099958,-0.095920235,0.25068536,-2.0683897,-1.8863518,-3.9564214
319,3.189999999999976,-0.041099958,-0.095920235,0.25068536,-2.0683897,-1.8863518,-3.9564214
320,3.1999999999999758,-0.06866254,-0.12714157,0.2941635,-2.3474023,-4.351193,-3.9358048
321,3.2099999999999755,-0.06866254,-0.12714157,0.2941635,-2.3474023,-4.351193,-3.9358048
322,3.2199999999999753,-0.06866254,-0.12714157,0.2941635,-2.3474023,-4.351193,-3.9358048
323,3.229999999999975,-0.11982407,-0.13122717,0.3448372,-2.7945557,-6.7363167,-3.7245982
324,3.239999999999975,0.010305479,-0.25312454,0.81547445,-3.2404873,-9.640523,-2.221717
325,3.2499999999999747,-0.6519283,-1.2232422,-1.1489694,-4.8559203,-3.247207,-1.2403619
326,3.2599999999999745,-0.6519283,-1.2232422,-1.1489694,-4.8559203,-3.247207,-1.2403619
327,3.2699999999999743,-0.38770556,-1.2800137,-0.37374133,-6.591236,3.7328448,-0.8359691
328,3.279999999999974,0.19397473,-1.2231811,1.0114615,-5.028032,7.796015,-1.7835737
329,3.289999999999974,0.09713981,-1.3148938,0.40788963,-3.9891028,8.845634,-2.1201606
330,3.2999999999999736,-0.7446166,-1.5941174,-0.22233005,6.0921593,0.8213083,0.05009095
331,3.3099999999999734,-0.7446166,-1.5941174,-0.22233005,6.0921593,0.8213083,0.05009095
332,3.319999999999973,-0.7446166,-1.5941174,-0.22233005,6.0921593,0.8213083,0.05009095
333,3.329999999999973,-0.8252311,-1.0596349,-0.12836114,6.0921593,0.8213083,0.05009095
334,3.3399999999999728,-0.8843199,-1.3297727,-0.05110054,7.7624173,-1.1333077,3.1025846
335,3.3499999999999726,-0.54893446,-0.9183462,-0.204829,6.9038463,0.34345898,4.9066224
336,3.3599999999999723,-0.4334399,-0.9065772,-0.10781116,6.9038463,0.34345898,4.9066224
337,3.369999999999972,-0.20269476,-0.99152124,0.020793896,4.732831,2.493552,6.3105435
338,3.379999999999972,-0.20269476,-0.99152124,0.020793896,4.1170793,2.5700629,6.1424026
339,3.3899999999999717,-0.10610375,-0.9750569,-0.048112564,4.1170793,2.5700629,6.1424026
340,3.3999999999999715,0.09799352,-0.8725509,-0.09317617,4.1170793,2.5700629,6.1424026
341,3.4099999999999713,0.2534294,-0.5822291,-0.11708001,0.7808385,0.6742425,3.097545
342,3.419999999999971,0.21647604,-0.35252056,-0.011647021,-0.082161374,-0.27198774,1.7515033
343,3.429999999999971,0.21647604,-0.35252056,-0.011647021,-0.082161374,-0.27198774,1.7515033
344,3.4399999999999706,0.21647604,-0.35252056,-0.011647021,-0.082161374,-0.27198774,1.7515033
345,3.4499999999999704,0.09713981,-0.07622396,0.060308397,-0.30405816,-0.96577793,0.799928
346,3.45999999999997,0.060125455,0.026343001,0.040612124,-0.24572055,-1.1791227,0.73639804
347,3.46999999999997,0.042502478,0.029026084,-0.00048783334,-0.17012598,-1.4081972,0.68645984
348,3.47999999999997,0.03433127,0.027013771,-0.011281146,-0.07269296,-1.6369661,0.6598872
349,3.4899999999999696,0.021464668,0.025001459,0.009085896,0.12705997,-1.948202,0.63423085
350,3.4999999999999694,0.021464668,0.025001459,0.009085896,0.40408736,-2.4335344,0.606131
351,3.509999999999969,-0.23611133,-0.16196068,-0.94438434,0.70356405,-3.3351715,0.43081272
352,3.519999999999969,-0.6454035,-0.6413789,-2.8036392,-0.59727347,-10.335688,0.8000808
353,3.5299999999999687,-0.6454035,-0.6413789,-2.8036392,-1.4999796,-13.57312,1.0462594
354,3.5399999999999685,-0.26245433,-1.0525614,0.15507002,-1.8866574,-14.171616,0.70616025
355,3.5499999999999683,-0.7944366,-2.0642667,0.36672872,-2.1519256,-12.576647,-0.00061086525
356,3.559999999999968,-2.5254521,-5.0981636,0.77406955,-2.9283352,-3.3815973,0.25503623
357,3.569999999999968,-2.5945415,-5.7728977,0.968837,-0.42378777,1.9304869,1.1446087
358,3.5799999999999677,-1.7597369,-5.256526,0.52643317,-0.42378777,1.9304869,1.1446087
359,3.5899999999999674,-1.7597369,-5.256526,0.52643317,2.782033,5.785199,1.5134187
360,3.5999999999999672,-0.71351725,-2.9163897,-0.158058,3.585321,7.966599,-0.0013744468
361,3.609999999999967,-0.5434463,-2.1593335,-0.7119318,3.8278344,7.1294084,-0.16752979
362,3.619999999999967,-0.30684718,-1.5585055,-1.6379614,3.6456437,5.7268615,-0.27916542
363,3.6299999999999666,-0.13506886,-1.0184131,-2.2281177,1.4773777,5.567273,-0.68493265
364,3.6399999999999664,-0.19184047,-0.8632211,-1.4591706,-0.7405214,6.1592016,-1.1111639
365,3.649999999999966,-0.18623038,-0.7685814,-0.8482203,-0.7405214,6.1592016,-1.1111639
366,3.659999999999966,-0.18623038,-0.7685814,-0.8482203,-0.7405214,6.1592016,-1.1111639
367,3.6699999999999657,-0.18623038,-0.7685814,-0.8482203,-0.7405214,6.1592016,-1.1111639
368,3.6799999999999655,-0.1656804,-0.6551602,-0.4751497,-1.9918789,6.1679063,-1.4249959
369,3.6899999999999653,0.04311227,-0.20415826,0.07494339,-3.4377968,3.131448,-2.392912
370,3.699999999999965,0.081956,-0.13104422,0.14952092,-3.313333,2.8925996,-2.6198483
371,3.709999999999965,0.11799469,-0.059027832,0.20745113,-3.1250339,2.7568347,-2.8029552
372,3.7199999999999647,0.12799528,-0.066345334,0.33727577,-2.4643831,1.9107865,-3.2270484
373,3.7299999999999645,0.095615335,-0.10878683,0.38374192,-2.156507,0.84696466,-3.373656
374,3.7399999999999642,0.04189269,-0.14897211,0.41490227,-1.7870862,-0.92927873,-3.4765868
375,3.749999999999964,0.0012805625,-0.13799585,0.4255736,-1.5682437,-3.101821,-3.4895678
376,3.759999999999964,0.0012805625,-0.13799585,0.4255736,-1.5682437,-3.101821,-3.4895678
377,3.7699999999999636,0.0012805625,-0.13799585,0.4255736,-1.5682437,-3.101821,-3.4895678
378,3.7799999999999634,0.0012805625,-0.13799585,0.4255736,-1.5682437,-3.101821,-3.4895678
379,3.789999999999963,0.0012805625,-0.13799585,0.4255736,-1.5682437,-3.101821,-3.4895678
380,3.799999999999963,-0.020001167,-0.15275282,0.56637454,-1.909412,-8.631679,-2.4376578
381,3.8099999999999627,-0.020001167,-0.15275282,0.56637454,-1.909412,-8.631679,-2.4376578
382,3.8199999999999625,-0.6785762,-0.9317616,-1.2404993,-2.228589,-6.9783716,-1.5534303
383,3.8299999999999623,-0.6785762,-0.9317616,-1.2404993,-2.228589,-6.9783716,-1.5534303
384,3.839999999999962,-0.50045604,-1.0645133,-0.7356527,-4.501008,-1.0629056,-0.69043046
385,3.849999999999962,0.14683785,-0.94426244,0.83023137,-5.813299,5.452125,-0.37201694
386,3.8599999999999617,0.014878917,-1.4630122,0.28898028,-2.7084239,6.9452324,-1.0056369
387,3.8699999999999615,-0.46417344,-2.4048965,-0.09750569,2.5906794,6.7825894,-0.7696902
388,3.8799999999999613,-0.77449644,-2.2901335,-0.184401,5.4522777,3.9881864,-0.044135015
389,3.889999999999961,-1.211717,-1.9709686,-0.28038222,7.7071342,0.21700987,1.9894354
390,3.899999999999961,-0.9988997,-1.7319303,-0.45368502,7.122536,-0.48426342,5.458234
391,3.9099999999999606,-0.6755272,-1.5380166,-0.3407516,7.122536,-0.48426342,5.458234
392,3.9199999999999604,-0.6755272,-1.5380166,-0.3407516,6.0791783,0.5681047,6.731888
393,3.92999999999996,-0.14665489,-1.1334808,-0.13775194,3.7368155,2.4210117,6.8598638
394,3.93999999999996,0.0017074167,-0.9330422,-0.08024859,2.8458683,2.7757716,6.2534275
395,3.9499999999999598,0.0017074167,-0.9330422,-0.08024859,2.8458683,2.7757716,6.2534275
396,3.9599999999999596,0.29032183,-0.43374482,-0.089822315,1.0873401,2.3805418,3.33227
397,3.9699999999999593,0.2461729,-0.27788207,-0.054149497,0.86299986,2.186592,2.803108
398,3.979999999999959,0.14409378,-0.091224834,0.0014635,0.50793445,1.8008307,1.8139644
399,3.989999999999959,0.11866546,-0.012866604,0.014391083,0.45646906,1.6888897,1.540144
400,3.9999999999999587,0.11177482,0.05585692,0.02713573,0.47311515,1.5691601,1.370629
401,4.009999999999959,0.11592139,0.09537142,0.025245376,0.5652031,1.3168727,1.2475395
402,4.019999999999959,0.58936363,0.49807784,-1.565579,0.61727935,1.1169671,1.1801916
403,4.0299999999999585,0.58936363,0.49807784,-1.565579,0.43676865,-2.0399845,0.795652
404,4.039999999999958,0.58936363,0.49807784,-1.565579,0.43676865,-2.0399845,0.795652
405,4.049999999999958,0.58936363,0.49807784,-1.565579,0.43676865,-2.0399845,0.795652
406,4.059999999999958,-0.00804925,-0.038294915,-0.51624966,0.3733914,-10.021244,-0.32803464
407,4.069999999999958,-0.16183871,-0.3430078,-1.7469312,-1.1833987,-8.764084,-0.32467487
408,4.079999999999957,-0.16183871,-0.3430078,-1.7469312,-1.1833987,-8.764084,-0.32467487
409,4.089999999999957,-0.0006707709,-0.2719061,-0.7326037,-2.187203,-7.353443,-0.38087448
410,4.099999999999957,-0.034026377,-0.44551378,0.33349505,-2.0332649,-5.614004,-0.9289733
411,4.109999999999957,-1.4565483,-2.3811755,0.6777834,-1.8400788,-2.7893634,-1.6110044
412,4.119999999999957,-2.7403429,-4.6194158,1.2236079,-1.2221886,0.9914343,-0.59620446
413,4.129999999999956,-3.0964,-5.693564,1.2941608,1.2009611,4.1430407,1.3009902
414,4.139999999999956,-2.7039382,-6.0579143,0.9098092,2.9765937,5.426316,2.2317963
415,4.149999999999956,-1.8688284,-5.4640994,0.4416111,3.984674,6.347195,1.675298
416,4.159999999999956,-1.2755013,-4.0899944,0.14561825,4.4112105,5.880647,0.57528234
417,4.1699999999999555,-0.7356527,-2.6725948,-0.82937765,5.2424455,3.860363,0.1740966
418,4.179999999999955,-0.03670946,-1.6766832,-3.113779,4.731915,4.9090657,0.022143865
419,4.189999999999955,0.20824386,-1.1776907,-2.8450441,2.0720549,7.9830923,-0.5945246
420,4.199999999999955,0.12683667,-1.021706,-1.9442598,-0.2133447,8.719185,-1.4144585
421,4.209999999999955,-0.09756667,-0.8818197,-1.2167783,-1.1316279,8.308836,-1.785559
422,4.2199999999999545,-0.15525296,-0.70510215,-0.5670453,-2.7687466,5.2714615,-2.5234842
423,4.229999999999954,-0.13702019,-0.5265551,-0.24306297,-2.7687466,5.2714615,-2.5234842
424,4.239999999999954,0.008902958,-0.301481,0.04610025,-3.0140092,3.9182425,-2.7824912
425,4.249999999999954,0.058844898,-0.18013246,0.09677394,-3.0928106,3.3169982,-2.968958
426,4.259999999999954,0.1308613,-0.02561125,0.120921694,-3.1042645,2.8637362,-3.1543555
427,4.269999999999953,0.1308613,-0.02561125,0.120921694,-3.120147,2.3921483,-3.3812919
428,4.279999999999953,0.1308613,-0.02561125,0.120921694,-3.120147,2.3921483,-3.3812919
429,4.289999999999953,0.1308613,-0.02561125,0.120921694,-3.120147,2.3921483,-3.3812919
430,4.299999999999953,-0.0001829375,-0.11238461,0.36337486,-2.8597655,-0.5777258,-3.7943895
431,4.3099999999999525,-0.078663126,-0.1323248,0.5246038,-2.6265678,-3.8093557,-3.6033413
432,4.319999999999952,-0.08732217,-0.12201932,0.553142,-2.5883887,-5.06728,-3.4561229
433,4.329999999999952,-0.06329638,-0.10896978,0.63217103,-2.6375635,-7.306712,-3.0276008
434,4.339999999999952,-0.06329638,-0.10896978,0.63217103,-2.7004826,-8.3378525,-2.6493225
435,4.349999999999952,-0.02555027,-0.07622396,0.73546976,-2.7004826,-8.3378525,-2.6493225
436,4.3599999999999515,0.06274756,-0.11592139,0.805047,-2.6418395,-8.448266,-1.6380352
437,4.369999999999951,0.10659158,-0.166839,0.7900461,-2.4591908,-8.043874,-1.3510813
438,4.379999999999951,0.13799585,-0.2836141,0.7854727,-1.8194622,-6.4511952,-0.97433007
439,4.389999999999951,-0.27818695,-0.7959611,-0.5520444,-1.3110695,-3.702607,-0.8258898
440,4.399999999999951,-0.5630816,-1.3704457,-1.4683784,-3.6972618,6.8090096,-0.56245416
441,4.40999999999995,0.13384928,-1.0587202,0.43819633,-3.9877284,12.03206,-0.8927795
442,4.41999999999995,0.22141537,-1.1217117,0.8346219,-3.2174273,13.3752,-1.3411547
443,4.42999999999995,0.22141537,-1.1217117,0.8346219,-3.2174273,13.3752,-1.3411547
444,4.43999999999995,-0.8362074,-2.2368987,-0.040917024,6.4977736,3.959934,-0.5364924
445,4.4499999999999496,-1.4113019,-2.1432958,-0.44594067,8.646187,-1.2221886,1.2562444
446,4.459999999999949,-1.48716,-2.054876,-0.6705269,8.568149,-2.1833851,3.4875824
447,4.469999999999949,-1.48716,-2.054876,-0.6705269,8.568149,-2.1833851,3.4875824
448,4.479999999999949,-1.48716,-2.054876,-0.6705269,8.568149,-2.1833851,3.4875824
449,4.489999999999949,-1.48716,-2.054876,-0.6705269,8.568149,-2.1833851,3.4875824
450,4.4999999999999485,-0.11921428,-1.2223884,-0.09884723,3.630372,2.4944682,7.347029
451,4.509999999999948,-0.11921428,-1.2223884,-0.09884723,1.6742289,2.3926065,5.602856
452,4.519999999999948,0.13476396,-0.945543,-0.1220803,1.6742289,2.3926065,5.602856
453,4.529999999999948,0.13476396,-0.945543,-0.1220803,1.6742289,2.3926065,5.602856
454,4.539999999999948,0.13476396,-0.945543,-0.1220803,1.6742289,2.3926065,5.602856
455,4.549999999999947,0.13476396,-0.945543,-0.1220803,1.6742289,2.3926065,5.602856
456,4.559999999999947,0.09134679,0.00804925,0.054820273,-0.24251351,0.7648033,1.2030991
457,4.569999999999947,0.084456146,0.052746978,0.03225798,-0.17241672,0.6614143,1.0780244
458,4.579999999999947,0.084456146,0.052746978,0.03225798,-0.17241672,0.6614143,1.0780244
459,4.589999999999947,0.084456146,0.052746978,0.03225798,-0.17241672,0.6614143,1.0780244
460,4.599999999999946,0.084456146,0.052746978,0.03225798,-0.17241672,0.6614143,1.0780244
461,4.609999999999946,0.112689495,0.12592198,-0.005854,-0.025045475,0.3643811,1.0030408
462,4.619999999999946,0.109884456,0.123299874,0.08232188,-0.79366666,-12.858713,-0.021533
463,4.629999999999946,0.11811664,0.1039085,0.098725274,-0.6401868,-12.699125,-0.08597928
464,4.6399999999999455,-0.16177773,-0.3825833,-1.4823426,-1.8383989,-10.317972,-0.031154128
465,4.649999999999945,-0.16177773,-0.3825833,-1.4823426,-1.8383989,-10.317972,-0.031154128
466,4.659999999999945,-0.16177773,-0.3825833,-1.4823426,-1.8383989,-10.317972,-0.031154128
467,4.669999999999945,-0.16177773,-0.3825833,-1.4823426,-1.8383989,-10.317972,-0.031154128
468,4.679999999999945,-1.3180648,-2.529172,0.75949556,-2.6629143,-3.6166277,-1.2261592
469,4.689999999999944,-2.4988654,-4.458431,0.95359224,-0.41263947,1.1137601,-1.3379476
470,4.699999999999944,-2.824982,-5.035233,0.9091994,-0.41263947,1.1137601,-1.3379476
471,4.709999999999944,-3.0160296,-5.618438,0.7102853,1.9353738,4.46573,0.98746365
472,4.719999999999944,-3.0160296,-5.618438,0.7102853,1.9353738,4.46573,0.98746365
473,4.729999999999944,-2.9423668,-5.8224735,0.6282074,5.530316,2.3864977,0.22602014
474,4.739999999999943,-0.9970094,-2.6380198,-1.9799937,6.3751426,1.3223705,0.010537425
475,4.749999999999943,-0.19616999,-1.5305771,-4.329582,6.3751426,1.3223705,0.010537425
476,4.759999999999943,-0.19616999,-1.5305771,-4.329582,6.3751426,1.3223705,0.010537425
477,4.769999999999943,-0.19616999,-1.5305771,-4.329582,4.991533,5.803983,-0.104610674
478,4.7799999999999425,-0.35630128,-1.0065222,-0.40990198,-1.4665347,7.7717333,-2.0410535
479,4.789999999999942,-0.24434352,-0.8733436,0.023294043,-2.0952678,6.248846,-2.2994494
480,4.799999999999942,0.067503944,-0.36599696,0.31940886,-2.5442538,3.5915823,-2.8785498
481,4.809999999999942,0.15915562,-0.2420873,0.3421541,-2.4788911,2.6261096,-3.151912
482,4.819999999999942,0.24623388,-0.10232304,0.42953727,-2.3273966,1.7635679,-3.4348953
483,4.8299999999999415,0.23800169,-0.02414775,0.52057916,-1.7614299,0.67164636,-3.881896
484,4.839999999999941,0.23800169,-0.02414775,0.52057916,-1.7614299,0.67164636,-3.881896
485,4.849999999999941,0.16927817,-0.03731925,0.3348976,-1.2854131,-1.4804319,-4.3311872
486,4.859999999999941,0.13134913,-0.059149794,0.28702894,-1.2948816,-2.4120014,-4.409378
487,4.869999999999941,0.007622396,-0.05866196,0.23117203,-1.689806,-4.624861,-4.3686028
488,4.87999999999994,-0.058540005,-0.03884373,0.30142003,-2.3081543,-6.638578,-4.072944
489,4.88999999999994,-0.07165052,-0.024818521,0.4375865,-2.8258626,-8.147415,-3.6601517
490,4.89999999999994,-0.07165052,-0.024818521,0.4375865,-2.8258626,-8.147415,-3.6601517
491,4.90999999999994,-0.026038107,-0.013110521,0.65229416,-3.3318117,-9.352041,-3.1079297
492,4.9199999999999395,0.07293109,-0.04853942,0.81748676,-4.040721,-9.399384,-1.6575829
493,4.929999999999939,0.12195834,-0.091102876,0.81797457,-4.0039163,-7.755087,-0.9104946
494,4.939999999999939,0.18684018,-0.14525238,0.84126866,-3.740786,-6.157369,-0.42730024
495,4.949999999999939,0.09049308,-0.33800754,0.34703246,-3.2194126,-3.647629,-0.08689558
496,4.959999999999939,-0.22208612,-0.6968699,-0.7607761,-3.5416439,-0.8933904,0.07345655
497,4.9699999999999385,-0.10104248,-0.8473056,-0.3381295,-5.156161,7.0730557,0.118507855
498,4.979999999999938,0.06372323,-0.6420496,0.2745282,-5.0900345,10.25994,-0.27580565
499,4.989999999999938,0.03280679,-0.8016931,0.24788031,-3.8166862,12.194398,-0.80924374
500,4.999999999999938,-0.25653934,-2.0620105,0.19226731,2.5444064,12.02198,-0.96776325
501,5.009999999999938,-0.5197864,-1.9313321,-0.033233646,6.9774556,7.3030467,-0.21456642
502,5.019999999999937,-1.0229865,-1.8931593,-0.97731316,10.056828,0.31780264,3.0902145
503,5.029999999999937,-1.0229865,-1.8931593,-0.97731316,9.130908,0.24480425,4.5992045
504,5.039999999999937,-0.69217455,-1.8886468,-0.5164326,7.614741,1.0262536,6.230673
505,5.049999999999937,-0.69217455,-1.8886468,-0.5164326,7.614741,1.0262536,6.230673
506,5.0599999999999365,-0.5135056,-1.841266,-0.22867186,7.614741,1.0262536,6.230673
507,5.069999999999936,-0.09140777,-1.5390532,-0.11073817,3.5020905,2.5848763,7.1697254
508,5.079999999999936,0.21373199,-1.065367,-0.09939604,1.2832751,1.9178114,5.615837
509,5.089999999999936,0.28818756,-0.78163093,-0.060186442,0.21502456,1.1534663,4.326453
510,5.099999999999936,0.28818756,-0.78163093,-0.060186442,0.21502456,1.1534663,4.326453
511,5.1099999999999355,0.18220575,-0.29013887,0.061345045,-0.98837996,-0.42852196,2.1012237
512,5.119999999999935,0.14976484,-0.19226731,0.083175585,-1.0332786,-0.63423085,1.8828394
513,5.129999999999935,0.091102876,-0.027379647,0.09762765,-0.95172805,-1.2092078,1.473407
514,5.139999999999935,0.08762706,0.013476395,0.07762648,-0.82527894,-1.4648548,1.3553573
515,5.149999999999935,0.072321296,0.026403978,0.045124583,-0.7246389,-1.5974126,1.2782356
516,5.159999999999934,0.072321296,0.026403978,0.045124583,-0.7246389,-1.5974126,1.2782356
517,5.169999999999934,0.09500554,0.044453815,0.007622396,-0.6363689,-1.6995798,1.1911873
518,5.179999999999934,0.05585692,0.050612707,0.014452063,-0.42271876,-1.9378172,1.0015136
519,5.189999999999934,0.05585692,0.050612707,0.014452063,-0.19914207,-2.2343924,0.8707884
520,5.199999999999934,0.09171267,0.011342125,0.011403104,0.041233405,-2.5590672,0.6215554
521,5.209999999999933,0.09171267,0.011342125,0.011403104,0.041233405,-2.5590672,0.6215554
522,5.219999999999933,0.09171267,0.011342125,0.011403104,0.041233405,-2.5590672,0.6215554
523,5.229999999999933,0.09171267,0.011342125,0.011403104,0.041233405,-2.5590672,0.6215554
524,5.239999999999933,0.08945644,-0.026708877,0.016220458,-0.8614727,-10.158842,-1.3591752
525,5.2499999999999325,-1.2564148,-2.0762186,0.26379588,-0.5141958,-11.1910515,-0.957684
526,5.259999999999932,-1.2564148,-2.0762186,0.26379588,-0.5141958,-11.1910515,-0.957684
527,5.269999999999932,-3.1655505,-5.183107,0.7341282,-1.6096299,-4.736038,-0.1518
528,5.279999999999932,-2.7847965,-5.395132,0.45886827,0.6780604,1.8284724,2.4083362
529,5.289999999999932,-2.7847965,-5.395132,0.45886827,0.6780604,1.8284724,2.4083362
530,5.299999999999931,-2.7847965,-5.395132,0.45886827,0.6780604,1.8284724,2.4083362
531,5.309999999999931,-1.3987402,-3.796502,-0.33392194,2.5975518,3.1112895,0.1385137
532,5.319999999999931,-0.8072422,-2.0149956,-1.3829466,0.99280876,6.903083,0.00015271631
533,5.329999999999931,-0.8072422,-2.0149956,-1.3829466,0.4830417,7.2964797,-0.062155537
534,5.339999999999931,-0.14885014,-0.50094384,-0.5948518,-0.1591304,6.6512537,-0.22250767
535,5.34999999999993,-0.14885014,-0.50094384,-0.5948518,-0.44211373,5.8339157,-0.4118759
536,5.35999999999993,-0.014269125,-0.19549921,-0.5860098,-0.65057147,5.1816645,-0.56337047
537,5.36999999999993,0.0787241,-0.08396832,-0.49484593,-1.8936822,3.3226488,-1.1067351
538,5.37999999999993,0.15976542,-0.046710044,-0.13147108,-2.3243423,2.9972103,-1.3773484
539,5.3899999999999295,0.15976542,-0.046710044,-0.13147108,-2.3243423,2.9972103,-1.3773484
540,5.399999999999929,0.21318316,0.005854,0.20178007,-2.4572055,2.8506026,-1.7200438
541,5.409999999999929,0.23556253,0.043661084,0.23416002,-2.3026567,2.201253,-2.35626
542,5.419999999999929,0.24989262,0.0102445,0.28196767,-2.2209532,1.6484199,-2.6311493
543,5.429999999999929,0.14714272,-0.052807957,0.2637349,-2.2209532,1.6484199,-2.6311493
544,5.4399999999999284,0.07549221,-0.081773065,0.3325194,-2.2035437,-1.0690142,-2.8901563
545,5.449999999999928,0.051649354,-0.1030548,0.4388061,-2.1905627,-2.6299276,-2.843425
546,5.459999999999928,0.018842563,-0.0942738,0.49539477,-2.191021,-4.620432,-2.6626089
547,5.469999999999928,0.015122834,-0.08250481,0.5205182,-2.252871,-6.1743207,-2.4217753
548,5.479999999999928,0.03225798,-0.07969977,0.6098527,-2.3441954,-7.85252,-2.0031798
549,5.489999999999927,0.08030956,-0.11140894,0.6507087,-2.3452644,-8.715978,-1.5335772
550,5.499999999999927,0.1276294,-0.16171674,0.67662483,-2.23989,-8.591667,-1.2873985
551,5.509999999999927,0.17379062,-0.24422157,0.6922355,-1.8964312,-7.58939,-0.9934196
552,5.519999999999927,-0.32105532,-0.81327915,-0.9874357,-2.6455047,-3.2519412,-0.6979135
553,5.5299999999999265,0.1243975,-1.1015277,0.48252818,-5.018869,5.334228,-0.12675454
554,5.539999999999926,0.1243975,-1.1015277,0.48252818,-5.522069,10.189996,-0.2648101
555,5.549999999999926,0.36697263,-1.1596408,0.87986845,-5.009248,11.278863,-0.7652614
556,5.559999999999926,0.19702369,-1.6004593,0.5307627,-3.4471126,11.968225,-1.7136297
557,5.569999999999926,-0.24172144,-2.8058343,-0.7648007,5.5886536,4.593554,-0.70509124
558,5.5799999999999255,-1.5383825,-2.7940044,-0.66339236,7.168809,-0.8367327,1.6013832
559,5.589999999999925,-1.5383825,-2.7940044,-0.66339236,7.026019,-2.548377,3.5245397
560,5.599999999999925,-1.0215839,-2.1356733,-0.6297928,6.220746,-2.6238189,5.3548446
561,5.609999999999925,-1.0215839,-2.1356733,-0.6297928,6.220746,-2.6238189,5.3548446
562,5.619999999999925,-0.37044844,-1.2152538,-0.28416294,4.5185704,-0.6395759,6.4186664
563,5.629999999999924,-0.1164702,-0.86480653,-0.14952092,3.7464366,0.09850202,6.1550784
564,5.639999999999924,0.07616298,-0.5901564,-0.124641426,2.9000828,0.43600506,5.28093
565,5.649999999999924,0.19299906,-0.41526812,-0.069577225,2.3477077,0.3747658,4.317443
566,5.659999999999924,0.24580702,-0.2614177,-0.0757971,1.8958203,0.20433442,3.2704198
567,5.6699999999999235,0.17226616,-0.06347931,-0.056588665,1.4373659,-0.16661349,2.1314616
568,5.679999999999923,0.155131,-0.010366458,-0.029635875,1.3016012,-0.38041633,1.7606664
569,5.689999999999923,0.1381788,0.019330395,-0.007744354,1.2492194,-0.56413406,1.5152513
570,5.699999999999923,0.122629106,0.049576063,0.018537667,1.3591752,-0.8226828,1.3005321
571,5.709999999999923,0.122629106,0.049576063,0.018537667,1.3591752,-0.8226828,1.3005321
572,5.7199999999999225,0.122629106,0.049576063,0.018537667,1.6948457,-1.3836098,0.98563105
573,5.729999999999922,0.110311314,0.077077664,-0.037929043,1.6082555,-1.1911873,1.0748174
574,5.739999999999922,0.10061563,0.09287128,-0.099152125,-1.606881,-0.34269542,0.9286679
575,5.749999999999922,-0.3257507,0.23165986,-3.515327,-1.606881,-0.34269542,0.9286679
576,5.759999999999922,0.08549279,0.032684833,-0.010854292,-3.6509888,-0.27366763,0.98761636
577,5.769999999999921,0.08116327,0.017866896,-0.057503358,-3.6509888,-0.27366763,0.98761636
578,5.779999999999921,0.054027542,-0.03585575,-0.18915738,-2.9483411,-2.3341162,0.42928556
579,5.789999999999921,0.045673396,-0.102384016,-0.24544115,-2.6077838,-4.444197,0.054825157
580,5.799999999999921,0.045673396,-0.102384016,-0.24544115,-2.6077838,-4.444197,0.054825157
581,5.809999999999921,0.25129515,-0.37429014,0.12689765,-1.920255,-7.202254,-1.6081028
582,5.81999999999992,0.257515,-0.48332086,0.15317966,-1.8536706,-7.383528,-2.2724187
583,5.82999999999992,-1.8661455,-2.9837105,0.8058397,-1.941177,-5.8754544,-5.3876786
584,5.83999999999992,-3.7314982,-4.6533203,1.0645133,-1.4926492,-3.3990068,-4.9081497
585,5.84999999999992,-3.7314982,-4.6533203,1.0645133,-1.4926492,-3.3990068,-4.9081497
586,5.8599999999999195,-3.7314982,-4.6533203,1.0645133,-1.4926492,-3.3990068,-4.9081497
587,5.869999999999919,-3.7314982,-4.6533203,1.0645133,-1.4926492,-3.3990068,-4.9081497
588,5.879999999999919,-3.7314982,-4.6533203,1.0645133,-1.4926492,-3.3990068,-4.9081497
589,5.889999999999919,-3.7314982,-4.6533203,1.0645133,-1.4926492,-3.3990068,-4.9081497
590,5.899999999999919,-1.1780565,-3.8400414,-0.19470648,1.7696766,10.0520935,-0.8116872
591,5.909999999999918,-0.20860973,-0.9169437,-1.4552679,0.80848014,9.372811,-1.2406673
592,5.919999999999918,-0.20860973,-0.9169437,-1.4552679,0.80848014,9.372811,-1.2406673
593,5.929999999999918,-0.20860973,-0.9169437,-1.4552679,0.80848014,9.372811,-1.2406673
594,5.939999999999918,-0.20860973,-0.9169437,-1.4552679,0.80848014,9.372811,-1.2406673
595,5.949999999999918,-0.20860973,-0.9169437,-1.4552679,0.80848014,9.372811,-1.2406673
596,5.959999999999917,0.13098325,-0.16866837,0.040795065,-1.8335121,3.472769,-2.1383338
597,5.969999999999917,0.24592897,-0.084456146,0.24800226,-2.385887,2.1670444,-2.7627907
598,5.979999999999917,0.2915414,-0.019391375,0.22769623,-2.3548856,1.7687603,-3.1181617
599,5.989999999999917,0.2915414,-0.019391375,0.22769623,-2.3548856,1.7687603,-3.1181617
600,5.9999999999999165,0.2915414,-0.019391375,0.22769623,-2.3548856,1.7687603,-3.1181617
601,6.009999999999916,0.2915414,-0.019391375,0.22769623,-2.3548856,1.7687603,-3.1181617
602,6.019999999999916,0.098725274,-0.16866837,0.544361,-2.4810293,-4.1583123,-4.146706
603,6.029999999999916,0.10787215,-0.16988796,0.60930383,-2.613587,-6.113234,-4.069737
604,6.039999999999916,0.11323831,-0.1510454,0.6943698,-2.8644998,-8.248055,-3.8142426
605,6.0499999999999154,0.15757017,-0.13921544,0.79309505,-3.150843,-9.73093,-3.395189
606,6.059999999999915,0.1864743,-0.15403338,0.8349877,-3.2820263,-10.108445,-3.0923526
607,6.069999999999915,-0.12720254,-0.38240036,0.30251765,-3.3513594,-7.769595,-1.8507689
608,6.079999999999915,-0.12720254,-0.38240036,0.30251765,-3.3513594,-7.769595,-1.8507689
609,6.089999999999915,-1.2200103,-1.2123878,-0.93157876,-5.4119606,0.57986385,-0.20387627
610,6.099999999999914,-0.69180864,-1.3384928,-0.09585925,-6.3907194,5.26688,0.5488624
611,6.109999999999914,-0.69180864,-1.3384928,-0.09585925,-4.6415067,10.033614,-0.85811293
612,6.119999999999914,0.17348573,-0.9081018,0.974752,-3.1209106,9.722226,-1.5421293
613,6.129999999999914,-0.38477856,-1.2261691,-0.45185563,-1.389413,11.075598,-1.7484491
614,6.1399999999999135,-0.84681773,-1.7202834,-1.3509325,3.9461894,9.444588,-0.8014552
615,6.149999999999913,-0.9556655,-1.5328333,-1.4990509,6.2158594,5.058117,0.35628715
616,6.159999999999913,-1.1042107,-1.2851969,-0.76431286,7.365355,-0.48624873,2.505311
617,6.169999999999913,-1.0149373,-1.1674461,-0.39795005,7.2752523,-1.7176003,3.787059
618,6.179999999999913,-1.0149373,-1.1674461,-0.39795005,7.031517,-1.9622519,5.1407366
619,6.1899999999999125,-1.0149373,-1.1674461,-0.39795005,7.031517,-1.9622519,5.1407366
620,6.199999999999912,-1.0149373,-1.1674461,-0.39795005,7.031517,-1.9622519,5.1407366
621,6.209999999999912,-0.23476979,-1.0861,-0.078785084,5.072167,-0.0030543262,6.8649035
622,6.219999999999912,-0.09683492,-1.0434146,-0.104701236,3.6332738,0.26542094,6.4386725
623,6.229999999999912,0.03957548,-0.9613366,-0.14531335,2.6386325,0.16920967,5.931196
624,6.239999999999911,0.20537783,-0.8140719,-0.14689882,1.3362677,-0.21273382,5.0071096
625,6.249999999999911,0.23489174,-0.4028284,0.077382565,0.24465153,-0.677755,3.9671116
626,6.259999999999911,0.23489174,-0.4028284,0.077382565,-0.782213,-1.3662001,2.6484063
627,6.269999999999911,0.1975725,-0.27275982,0.12708059,-1.0519099,-1.9474384,1.981036
628,6.2799999999999105,0.17385161,-0.14421573,0.12769037,-0.92255926,-2.372448,1.3671165
629,6.28999999999991,0.14122775,-0.041953668,0.16702195,-0.92255926,-2.372448,1.3671165
630,6.29999999999991,0.107201375,-0.004756375,0.13019052,-0.78694713,-2.4120014,1.258077
631,6.30999999999991,0.06488183,0.029148044,0.0060369377,-0.5488624,-2.501035,1.1007792
632,6.31999999999991,0.059698608,0.029574897,-0.013537374,-0.45769078,-2.4921775,0.9949468
633,6.3299999999999095,0.06994311,0.01695221,-0.008841979,-0.38713586,-2.4698808,0.84604836
634,6.339999999999909,0.06994311,0.01695221,-0.008841979,-0.38713586,-2.4698808,0.84604836
635,6.349999999999909,0.10061563,-0.061284065,-0.007622396,-0.2771801,-2.2773056,0.23304509
636,6.359999999999909,0.07469948,-0.33770263,0.017440042,-0.29565877,-2.2001839,-0.26893342
637,6.369999999999909,-0.11744587,-0.7693132,-0.0064637917,-0.39080104,-2.094657,-1.0908526
638,6.379999999999908,-1.0285966,-2.1150625,-0.1267147,-0.42180246,-2.23989,-2.501035
639,6.389999999999908,-2.312086,-3.7294858,-0.03738023,1.1233811,-5.2206073,-3.2925637
640,6.399999999999908,-3.3186693,-4.7939386,0.3574599,2.4139867,-5.803067,-2.4294112
641,6.409999999999908,-3.6624086,-5.385375,0.626378,2.6021333,-3.426954,-1.0690142
642,6.419999999999908,-2.7733326,-5.5722156,-0.34971553,2.2414174,3.2979088,1.5068518
643,6.429999999999907,-1.4492309,-4.490994,-1.1289684,1.7800614,6.386749,1.55847
644,6.439999999999907,-0.48606494,-2.8223598,-1.3352609,1.5318973,6.4337854,0.58169645
645,6.449999999999907,-0.5133226,-1.695099,-1.1305537,1.2357804,5.0831623,-0.21471913
646,6.459999999999907,-0.5133226,-1.695099,-1.1305537,0.862389,4.443281,-0.4529566
647,6.4699999999999065,-0.5133226,-1.695099,-1.1305537,0.862389,4.443281,-0.4529566
648,6.479999999999906,-0.5133226,-1.695099,-1.1305537,0.862389,4.443281,-0.4529566
649,6.489999999999906,-0.47868645,-1.2247056,-0.86944103,-1.1962268,4.287205,-0.54229563
650,6.499999999999906,-0.19507235,-0.7212616,-0.37429014,-1.7600555,4.251775,-0.6656904
651,6.509999999999906,0.064637914,-0.22757424,-0.113116354,-1.7600555,4.251775,-0.6656904
652,6.519999999999905,0.13214186,-0.1358006,-0.047319833,-2.4810293,3.1430545,-1.1855367
653,6.529999999999905,0.22854991,-0.050856624,0.110006414,-2.5970936,2.9060388,-1.5572482
654,6.539999999999905,0.22854991,-0.050856624,0.110006414,-2.5970936,2.9060388,-1.5572482
655,6.549999999999905,0.22854991,-0.050856624,0.110006414,-2.5970936,2.9060388,-1.5572482
656,6.559999999999905,0.22854991,-0.050856624,0.110006414,-2.5970936,2.9060388,-1.5572482
657,6.569999999999904,0.20556077,-0.00085370836,0.091651686,-2.5880833,2.7090347,-1.982105
658,6.579999999999904,0.16763173,-0.10683551,0.2426361,-2.3738225,0.123547494,-2.9830077
659,6.589999999999904,0.09933506,-0.12897095,0.31434762,-2.2638667,-1.6482671,-3.1096096
660,6.599999999999904,0.10104248,-0.13567865,0.3422151,-2.2244658,-3.2458324,-3.161533
661,6.6099999999999035,0.10104248,-0.13567865,0.3422151,-2.2244658,-3.2458324,-3.161533
662,6.619999999999903,0.10104248,-0.13567865,0.3422151,-2.2244658,-3.2458324,-3.161533
663,6.629999999999903,0.11958014,-0.16025324,0.4036211,-2.2375994,-5.3722544,-3.158937
664,6.639999999999903,-0.056588665,-0.23111105,0.21854934,-2.2096524,-8.112748,-2.6703975
665,6.649999999999903,-0.3881324,-0.82071865,-0.60692567,-5.2338934,0.100792766,-1.3274102
666,6.659999999999902,-0.3881324,-0.82071865,-0.60692567,-5.2338934,0.100792766,-1.3274102
667,6.669999999999902,-0.3881324,-0.82071865,-0.60692567,-5.2338934,0.100792766,-1.3274102
668,6.679999999999902,-0.3881324,-0.82071865,-0.60692567,-5.2338934,0.100792766,-1.3274102
669,6.689999999999902,0.33941004,-0.9557874,0.98042303,-3.5457673,4.264603,-2.3848178
670,6.699999999999902,-0.40837747,-1.6460106,-0.6257682,-1.0389291,6.854519,-2.5227208
671,6.709999999999901,-0.8601112,-1.7460774,-0.5774118,4.389525,4.5017715,-1.4256067
672,6.719999999999901,-1.0669525,-1.6032033,-0.30245668,6.7324986,1.0925325,-0.062002823
673,6.729999999999901,-1.0277429,-1.3906299,-0.052259143,7.8827577,-1.0305296,1.2495248
674,6.739999999999901,-1.0277429,-1.3906299,-0.052259143,8.317083,-1.8863518,2.4497223
675,6.7499999999999005,-0.9519458,-1.2788551,0.0041465834,8.214916,-1.6586518,4.107
676,6.7599999999999,-0.80602264,-1.2664763,-0.069577225,8.085718,-1.333977,4.6163087
677,6.7699999999999,-0.65845305,-1.4305713,-0.010061563,7.4017015,-0.081397794,5.986785
678,6.7799999999999,-0.48630884,-1.5253938,0.03719729,6.4597473,0.8938486,6.588487
679,6.7899999999999,-0.0010366458,-1.2150708,-0.17958365,5.678298,1.4772248,6.6314006
680,6.7999999999998995,0.20287769,-0.983533,-0.23501371,3.639077,2.2624922,5.7613754
681,6.809999999999899,0.20287769,-0.983533,-0.23501371,3.639077,2.2624922,5.7613754
682,6.819999999999899,0.3047129,-0.73931146,-0.12683667,0.41462478,1.4083499,2.5540276
683,6.829999999999899,0.13183697,-0.34093451,0.10823802,-0.6114761,0.5326745,0.9240864
684,6.839999999999899,0.06726002,-0.152204,0.12134854,-0.8341365,-0.16691893,0.13271047
685,6.849999999999898,0.05689356,-0.09970094,0.10354263,-0.8173377,-0.3830125,0.038331795
686,6.859999999999898,0.02426971,0.0041465834,0.03518498,-0.77534074,-0.68554354,-0.025045475
687,6.869999999999898,0.028355313,0.028477272,0.0027440626,-0.7360926,-0.84772825,-0.043676864
688,6.879999999999898,0.028355313,0.028477272,0.0027440626,-0.7360926,-0.84772825,-0.043676864
689,6.8899999999998975,0.023537958,0.054820273,0.03164819,-0.52931476,-1.273654,-0.06872234
690,6.899999999999897,0.020123126,0.093359105,0.055003207,-0.069791354,-2.208278,-0.12935072
691,6.909999999999897,-0.46941763,-0.18568157,-1.4936846,0.57757306,-8.273101,-0.24831672
692,6.919999999999897,-0.3708753,-0.4025235,-1.8165694,-0.37888917,-12.8257265,-0.1731803
693,6.929999999999897,-0.17622979,-0.47435695,-1.0495734,-1.0810788,-13.726142,-0.21426098
694,6.9399999999998965,-0.13647138,-0.6572335,0.17665665,-1.4097242,-12.901321,-0.6062838
695,6.949999999999896,-0.5149081,-1.27916,0.4212441,-1.425454,-11.151803,-1.0393872
696,6.959999999999896,-2.3284285,-4.196464,1.0154251,-1.8185458,-6.597345,-0.7351763
697,6.969999999999896,-2.3284285,-4.196464,1.0154251,-1.9816469,-1.8374827,0.366061
698,6.979999999999896,-2.438069,-5.1717653,1.0512199,-0.8571966,4.196797,1.9019289
699,6.989999999999895,-2.028289,-5.187376,0.8756608,2.3545802,6.7894616,2.2847888
700,6.999999999999895,-1.586495,-4.867845,0.5682039,3.2554536,7.1303244,1.9709567
701,7.009999999999895,-0.65759933,-2.1518939,-0.7526049,4.50956,6.5028133,-0.077579886
702,7.019999999999895,-0.65759933,-2.1518939,-0.7526049,4.50956,6.5028133,-0.077579886
703,7.0299999999998946,-0.06854059,-0.86700183,-2.5421605,4.0759983,6.512129,-0.12064589
704,7.039999999999894,-0.06854059,-0.86700183,-2.5421605,1.8251126,7.7327905,-0.3539964
705,7.049999999999894,-0.09085896,-0.67631996,-1.1305537,-1.485777,7.5422006,-1.1827878
706,7.059999999999894,-0.04408794,-0.58540004,-0.538629,-2.2508857,6.351624,-1.5754215
707,7.069999999999894,-0.010305479,-0.45801452,-0.2382456,-2.2508857,6.351624,-1.5754215
708,7.0799999999998935,-0.010305479,-0.45801452,-0.2382456,-2.2508857,6.351624,-1.5754215
709,7.089999999999893,0.08817588,-0.36642382,0.0033538544,-2.526386,5.2946744,-1.8810068
710,7.099999999999893,0.20299964,-0.16019227,0.2514781,-2.4698808,2.4420865,-2.9859092
711,7.109999999999893,0.21007323,-0.093785964,0.2819067,-2.317928,1.993406,-3.2607987
712,7.119999999999893,0.17805916,-0.05549104,0.2903828,-2.104889,1.2863295,-3.5501962
713,7.129999999999892,0.13909347,-0.0757971,0.25562465,-2.0705278,0.29886582,-3.730554
714,7.139999999999892,0.13909347,-0.0757971,0.25562465,-2.0705278,0.29886582,-3.730554
715,7.149999999999892,0.13909347,-0.0757971,0.25562465,-2.0807598,-1.0123564,-3.8438694
716,7.159999999999892,0.12890996,-0.15470415,0.44167212,-1.9620992,-3.3125696,-3.930307
717,7.169999999999892,0.05110054,-0.15116736,0.47155192,-2.1368067,-7.7509637,-3.445891
718,7.179999999999891,0.050063897,-0.15067953,0.48130858,-2.1368067,-7.7509637,-3.445891
719,7.189999999999891,0.06183288,-0.14805742,0.52033526,-2.354122,-8.54127,-2.9448287
720,7.199999999999891,0.022318374,-0.2382456,0.28080907,-2.5126414,-8.39283,-2.6406178
721,7.209999999999891,-0.30587152,-1.1822032,-0.7215665,-5.53673,-0.68019843,-1.5157094
722,7.2199999999998905,0.082016975,-1.2040946,0.19385278,-6.4369926,4.02942,-1.4184291
723,7.22999999999989,0.082016975,-1.2040946,0.19385278,-6.4369926,4.02942,-1.4184291
724,7.23999999999989,0.082016975,-1.2040946,0.19385278,-6.4369926,4.02942,-1.4184291
725,7.24999999999989,0.082016975,-1.2040946,0.19385278,-6.4369926,4.02942,-1.4184291
726,7.25999999999989,0.47453988,-1.2458653,0.9950581,-3.9142718,6.455166,-2.7852402
727,7.269999999999889,-0.79242426,-2.771625,-0.89352775,3.7126863,10.0473585,-2.2918136
728,7.279999999999889,-0.79242426,-2.771625,-0.89352775,5.897293,5.223814,-0.047647487
729,7.289999999999889,-1.2466581,-2.5444167,-0.89212525,5.897293,5.223814,-0.047647487
730,7.299999999999889,-1.2466581,-2.5444167,-0.89212525,5.897293,5.223814,-0.047647487
731,7.309999999999889,-1.2466581,-2.5444167,-0.89212525,5.897293,5.223814,-0.047647487
732,7.319999999999888,-0.32684833,-1.0373776,-0.06372323,5.7146444,-1.559539,7.316944
733,7.329999999999888,-0.22434235,-0.9192609,-0.049027253,5.294216,-0.9282097,7.5906115
734,7.339999999999888,-0.05372265,-0.8152305,-0.017927876,4.670065,-0.19746219,7.5800743
735,7.349999999999888,0.007744354,-0.76431286,-0.0515274,4.381278,0.021533,7.452556
736,7.3599999999998875,0.007744354,-0.76431286,-0.0515274,4.381278,0.021533,7.452556
737,7.369999999999887,0.007744354,-0.76431286,-0.0515274,4.381278,0.021533,7.452556
738,7.379999999999887,0.28251648,-0.2338551,-0.061649937,3.111442,0.18173242,6.5348835
739,7.389999999999887,0.28251648,-0.2338551,-0.061649937,0.8381071,-1.4301883,3.6118934
740,7.399999999999887,0.28641915,-0.16055815,-0.0069516255,0.8381071,-1.4301883,3.6118934
741,7.4099999999998865,0.1911087,-0.0031099375,0.027196707,0.7771733,-1.8497,2.4521658
742,7.419999999999886,0.12769037,0.02128173,0.017988855,0.8547532,-1.927738,2.2548563
743,7.429999999999886,0.088419795,0.03561183,-0.011829958,0.95447695,-2.0164661,2.0980167
744,7.439999999999886,0.07091877,0.033538543,-0.015854584,1.0213667,-2.0624337,2.0276144
745,7.449999999999886,0.051771317,0.021586625,-0.04469773,1.186453,-2.2557726,1.9010127
746,7.459999999999885,0.026221042,-0.017196124,-0.3958158,1.0615311,-2.1018345,1.7087429
747,7.469999999999885,-0.39441326,-0.36739948,-2.668997,-1.3072516,1.2948816,1.7948748
748,7.479999999999885,0.017562,-0.117811754,-0.29721245,-3.2287283,3.960392,1.5784758
749,7.489999999999885,0.06219875,-0.14635001,-0.16141187,-3.3513594,3.6137261,1.218218
750,7.4999999999998845,-0.1299466,-0.81760865,-0.8909056,-2.7426322,0.7096727,0.22724187
751,7.509999999999884,-0.1299466,-0.81760865,-0.8909056,-1.6673567,-3.646102,-0.7060075
752,7.519999999999884,-0.29660267,-1.4814279,-0.14665489,-0.86544335,-6.5726047,-2.0334177
753,7.529999999999884,-1.525089,-3.032799,0.3586185,-0.7640397,-6.8245864,-3.5425603
754,7.539999999999884,-2.7883334,-4.2897015,0.64845246,-0.991587,-4.9507575,-3.3070717
755,7.5499999999998835,-3.2269566,-5.493491,0.7256521,0.0096211275,0.8402451,1.549307
756,7.559999999999883,-2.154211,-5.003097,0.38532734,0.0096211275,0.8402451,1.549307
757,7.569999999999883,-1.0379264,-3.4003203,-0.28885832,3.0532572,-0.10293079,1.190729
758,7.579999999999883,-1.0379264,-3.4003203,-0.28885832,3.323107,0.4934264,0.5685628
759,7.589999999999883,-0.36197233,-1.601008,-2.0010314,2.301893,5.439144,-0.11636983
760,7.599999999999882,-0.21074401,-1.188301,-1.5684452,0.93111134,7.8230457,-0.6988298
761,7.609999999999882,-0.22397648,-0.86748964,-0.91462654,0.93111134,7.8230457,-0.6988298
762,7.619999999999882,-0.21074401,-0.73370135,-0.70467526,0.93111134,7.8230457,-0.6988298
763,7.629999999999882,-0.21074401,-0.73370135,-0.70467526,0.93111134,7.8230457,-0.6988298
764,7.6399999999998816,-0.14769155,-0.57247245,-0.42093918,-1.6276505,4.5619416,-1.9139935
765,7.649999999999881,0.0127446465,-0.23476979,0.014635001,-2.1097758,3.7455204,-2.1901047
766,7.659999999999881,0.07506536,-0.10354263,0.08768804,-2.3341162,3.1882584,-2.4657576
767,7.669999999999881,0.07012604,-0.043722063,0.062076796,-2.4451408,2.9578094,-2.6514606
768,7.679999999999881,0.07012604,-0.043722063,0.062076796,-2.4451408,2.9578094,-2.6514606
769,7.6899999999998805,0.07012604,-0.043722063,0.062076796,-2.4451408,2.9578094,-2.6514606
770,7.69999999999988,0.1006766,0.040673107,0.028172374,-2.840218,1.621389,-3.3066137
771,7.70999999999988,0.039270584,-0.008537084,0.0032928751,-2.840218,1.621389,-3.3066137
772,7.71999999999988,-0.006707709,-0.058357064,0.053173836,-3.0546317,0.6983717,-3.364035
773,7.72999999999988,-0.03725827,-0.07677277,0.14567922,-3.2346842,-0.5477934,-3.3942728
774,7.739999999999879,-0.06695513,-0.143423,0.37770495,-3.485139,-4.2841506,-3.2374332
775,7.749999999999879,-0.05390558,-0.17702252,0.5078345,-3.485139,-4.2841506,-3.2374332
776,7.759999999999879,-0.03957548,-0.20098734,0.6047914,-3.4428365,-7.4663005,-2.7456865
777,7.769999999999879,-0.03957548,-0.20098734,0.6047914,-3.249803,-8.217817,-2.4955373
778,7.779999999999879,0.00030489583,-0.25928342,0.7496779,-3.249803,-8.217817,-2.4955373
779,7.789999999999878,0.031709168,-0.36892396,0.84242725,-2.4307854,-7.6405497,-1.9226984
780,7.799999999999878,-0.15793604,-0.67808837,0.23470882,-1.8565722,-5.7274723,-1.651627
781,7.809999999999878,-0.48252818,-1.5852754,-1.1506159,-3.457039,2.868165,-1.2835805
782,7.819999999999878,0.066345334,-1.4750861,0.21312219,-4.018119,9.052565,-1.617113
783,7.8299999999998775,0.10701844,-1.4531946,0.42868355,-3.8892262,9.9294615,-1.7692184
784,7.839999999999877,0.10701844,-1.4531946,0.42868355,-3.8892262,9.9294615,-1.7692184
785,7.849999999999877,-1.2069607,-2.467339,-0.21428078,5.4664803,0.7806858,0.031612277
786,7.859999999999877,-1.5435047,-2.3337948,-0.47271052,7.0075407,-2.9993484,2.4485006
787,7.869999999999877,-1.411058,-2.1551259,-0.6158896,6.8523808,-3.1816916,4.2858305
788,7.879999999999876,-1.2034848,-2.0198739,-0.48923588,6.220135,-2.0114264,5.9015694
789,7.889999999999876,-0.93340814,-1.8124837,-0.32294568,5.469229,-0.7840455,7.016093
790,7.899999999999876,-0.083175585,-1.115309,-0.06518673,3.4316883,0.9630291,6.8981957
791,7.909999999999876,-0.083175585,-1.115309,-0.06518673,3.4316883,0.9630291,6.8981957
792,7.919999999999876,0.20647547,-0.7925463,-0.12086072,2.4788911,0.98883814,5.35683
793,7.929999999999875,0.20647547,-0.7925463,-0.12086072,2.4788911,0.98883814,5.35683
794,7.939999999999875,0.20647547,-0.7925463,-0.12086072,2.4788911,0.98883814,5.35683
795,7.949999999999875,0.20647547,-0.7925463,-0.12086072,1.4344643,0.5030475,2.5934284
796,7.959999999999875,0.06335735,-0.044453815,0.0059759584,0.86926126,-0.06261369,0.7021896
797,7.9699999999998745,0.06518673,0.018537667,0.028111396,0.7985536,-0.1611157,0.3594942
798,7.979999999999874,0.06061329,0.038477857,0.0336605,0.8570439,-0.24877487,0.31505376
799,7.989999999999874,0.06061329,0.038477857,0.0336605,0.8570439,-0.24877487,0.31505376
800,7.999999999999874,0.06061329,0.038477857,0.0336605,0.8570439,-0.24877487,0.31505376
801,8.009999999999874,0.17446141,0.18226673,-0.47521064,0.8570439,-0.24877487,0.31505376
802,8.019999999999873,0.0029879792,0.4428917,-2.8738263,-0.795652,-8.638093,-0.16371189
803,8.029999999999873,-0.12342183,0.08482202,-0.6587579,-1.7023287,-11.770762,-0.013439035
804,8.039999999999873,-0.12342183,0.08482202,-0.6587579,-1.7023287,-11.770762,-0.013439035
805,8.049999999999873,-0.12342183,0.08482202,-0.6587579,-1.7023287,-11.770762,-0.013439035
806,8.059999999999873,-0.12342183,0.08482202,-0.6587579,-1.7023287,-11.770762,-0.013439035
807,8.069999999999872,0.0617719,-0.027074749,-0.3392881,-1.7545577,-12.419044,0.12965615
808,8.079999999999872,0.08939546,-0.2608079,-0.47990605,-3.0046935,-9.820575,-0.43081272
809,8.089999999999872,0.08939546,-0.2608079,-0.47990605,-3.4393241,-8.435286,-1.0302242
810,8.099999999999872,-3.0710938,-4.877236,1.2561098,-3.6027305,-7.7581415,-1.6099354
811,8.109999999999872,-3.2011623,-5.415194,1.2248886,1.651627,3.488804,1.1328496
812,8.119999999999871,-2.5969808,-5.1471295,0.8392563,3.317609,4.1853433,1.8868101
813,8.129999999999871,-1.5774701,-4.3747063,0.24544115,4.2400155,5.426774,1.329701
814,8.139999999999871,-0.7956562,-2.5911267,-0.8231578,4.0254493,5.1560082,0.042455133
815,8.14999999999987,-0.51716435,-2.0278013,-1.6766832,3.5877643,4.670981,-0.081855945
816,8.15999999999987,-0.26294217,-1.37569,-2.2922678,1.7660115,4.6518917,-0.23884831
817,8.16999999999987,-0.27446723,-1.1665314,-1.9401742,0.4729624,4.799874,-0.31856623
818,8.17999999999987,-0.34934965,-0.8945034,-1.0329871,-1.4321736,4.729166,-0.3903429
819,8.18999999999987,-0.27117437,-0.5291162,-0.48216227,-2.0114264,4.554611,-0.39935315
820,8.19999999999987,-0.27117437,-0.5291162,-0.48216227,-2.5665503,4.140903,-0.44028112
821,8.20999999999987,-0.19488941,-0.2980052,-0.44673342,-2.8716774,3.552945,-0.48502702
822,8.21999999999987,-0.123299874,-0.15000875,-0.47752786,-3.075554,3.0266845,-0.54534996
823,8.229999999999869,-0.03286777,-0.041221917,-0.47161287,-3.3840408,2.4766004,-0.68569624
824,8.239999999999869,0.010000584,-0.0046344167,-0.38929102,-3.6593883,2.4000895,-0.8425359
825,8.249999999999869,0.011829958,-0.02792846,0.2274523,-3.680616,3.1842878,-1.176221
826,8.259999999999868,0.011829958,-0.02792846,0.2274523,-3.680616,3.1842878,-1.176221
827,8.269999999999868,0.10842097,-0.064820856,0.39112037,-2.866027,3.1302261,-1.5305228
828,8.279999999999868,0.10842097,-0.064820856,0.39112037,-2.866027,3.1302261,-1.5305228
829,8.289999999999868,0.10842097,-0.064820856,0.39112037,-2.866027,3.1302261,-1.5305228
830,8.299999999999867,0.06872352,-0.09854234,0.4355132,-2.5544858,2.6939158,-1.6380352
831,8.309999999999867,0.13952033,-0.14970386,0.603023,-2.5544858,2.6939158,-1.6380352
832,8.319999999999867,0.096347086,-0.1358006,0.47228366,-0.79412484,-4.427704,-2.1665864
833,8.329999999999867,0.07012604,-0.13159303,0.4622221,-0.70814556,-5.4232616,-2.1594086
834,8.339999999999867,0.08329754,-0.17159538,0.43215933,-0.7790059,-6.614907,-2.104889
835,8.349999999999866,-0.1009815,-0.41526812,-0.40874338,-1.2156218,-5.9913664,-1.998751
836,8.359999999999866,-0.60655975,-1.2257423,-1.841449,-4.162894,-0.8520043,-1.406059
837,8.369999999999866,-0.14330104,-1.343737,-0.65363574,-7.025103,4.53262,-1.2064588
838,8.379999999999866,0.26763758,-1.249768,0.3298363,-7.500967,5.683643,-1.5787812
839,8.389999999999866,0.14945993,-1.5072831,0.6568676,-5.543297,5.7732873,-2.9614747
840,8.399999999999865,-0.3041031,-2.7022917,-1.4732567,-5.543297,5.7732873,-2.9614747
841,8.409999999999865,-1.0675623,-2.098964,-0.18427904,1.1133019,-0.9184359,-1.9781344
842,8.419999999999865,-1.0675623,-2.098964,-0.18427904,4.1758747,-3.668704,-0.48670688
843,8.429999999999865,-0.81864536,-1.4236807,0.16805859,4.9162436,-3.8041632,0.43967026
844,8.439999999999864,-0.7327257,-1.2276936,0.32928753,5.5471144,-1.8162551,3.0521882
845,8.449999999999864,-0.6158286,-1.1001252,0.36252114,5.871637,-1.3332134,3.873191
846,8.459999999999864,-0.49332145,-0.986582,0.28093103,6.136447,-0.8043568,4.6152396
847,8.469999999999864,-0.49332145,-0.986582,0.28093103,6.136447,-0.8043568,4.6152396
848,8.479999999999864,-0.20275573,-0.8348658,0.08366342,5.9418864,0.53023106,4.9254065
849,8.489999999999863,0.046039272,-0.7560807,0.015488708,5.472131,1.1840096,4.169766
850,8.499999999999863,0.19397473,-0.6735149,-0.05860098,4.845994,1.3620768,2.7203357
851,8.509999999999863,0.23483077,-0.5227744,-0.09171267,4.2817073,1.2063061,1.3924674
852,8.519999999999863,0.20732918,-0.40843847,-0.09146875,3.9086213,1.0193814,0.50885075
853,8.529999999999863,0.08293167,-0.21946402,-0.048722353,3.436117,0.81229806,-0.5123632
854,8.539999999999862,0.06225973,-0.13177599,-0.029026084,3.2607987,0.7496844,-0.8226828
855,8.549999999999862,0.057320416,-0.08396832,-0.00042685418,3.2128458,0.70646566,-0.95249164
856,8.559999999999862,0.0515274,-0.03957548,0.015061854,3.2951598,0.5664248,-1.0235047
857,8.569999999999862,0.051466417,-0.02695279,0.015854584,3.2951598,0.5664248,-1.0235047
858,8.579999999999862,0.051466417,-0.02695279,0.015854584,3.2951598,0.5664248,-1.0235047
859,8.589999999999861,-1.1379932,-0.16549747,-4.050236,-2.1707096,-7.0570207,0.17348573
860,8.599999999999861,0.008781,-0.051405437,0.078785084,-4.1850376,-9.666943,1.1317806
861,8.60999999999986,0.008781,-0.051405437,0.078785084,-4.1850376,-9.666943,1.1317806
862,8.61999999999986,0.008781,-0.051405437,0.078785084,-4.1850376,-9.666943,1.1317806
863,8.62999999999986,0.18970619,-0.05939371,0.10488417,-3.8151588,-9.277669,1.0629056
864,8.63999999999986,0.1604362,-0.08018761,0.21787858,-3.280499,-8.46812,0.7338019
865,8.64999999999986,-0.42490283,-1.1226264,0.28965104,-3.0663908,-5.399896,-1.127199
866,8.65999999999986,-1.5410655,-2.4393497,0.62991476,-3.0663908,-5.399896,-1.127199
867,8.66999999999986,-1.5410655,-2.4393497,0.62991476,-3.6117408,-2.7462974,-2.0346394
868,8.67999999999986,-1.5410655,-2.4393497,0.62991476,-3.6117408,-2.7462974,-2.0346394
869,8.68999999999986,-3.0114563,-5.386168,0.95255554,4.9414415,-1.7383698,2.2015584
870,8.699999999999859,-3.0114563,-5.386168,0.95255554,4.9414415,-1.7383698,2.2015584
871,8.709999999999859,-0.14476454,-3.7773547,-2.9515746,5.211444,1.6151277,1.5044084
872,8.719999999999859,-0.041953668,-2.5844193,-2.282999,1.8698585,7.511657,0.036193766
873,8.729999999999858,-0.2959319,-2.1943963,-1.6197896,0.70280045,8.692154,-0.3371976
874,8.739999999999858,-0.2959319,-2.1943963,-1.6197896,0.70280045,8.692154,-0.3371976
875,8.749999999999858,-0.2959319,-2.1943963,-1.6197896,0.70280045,8.692154,-0.3371976
876,8.759999999999858,-0.4984437,-1.6310097,-0.79400975,0.036957346,5.48725,0.02443461
877,8.769999999999857,-0.21031716,-0.67839324,-0.63076854,-0.43417248,3.8547125,-0.013439035
878,8.779999999999857,-0.1445816,-0.33715382,-0.7322988,-1.9149098,3.8385246,-0.4642576
879,8.789999999999857,-0.11025034,-0.254649,-0.6057671,-2.7614164,4.019646,-0.6881397
880,8.799999999999857,-0.11025034,-0.254649,-0.6057671,-2.7614164,4.019646,-0.6881397
881,8.809999999999857,-0.06158896,-0.19397473,-0.33556834,-3.2888985,4.1027236,-0.8570439
882,8.819999999999856,0.013354438,-0.16799761,0.011342125,-3.7129917,3.8944187,-1.1707232
883,8.829999999999856,0.0062808543,-0.13019052,0.28715092,-3.5170567,3.5877643,-1.395827
884,8.839999999999856,0.027379647,-0.14537434,0.3518498,-3.215442,3.1574097,-1.4973835
885,8.849999999999856,0.036587503,-0.17659567,0.47710103,-2.8053987,2.4616342,-1.5958854
886,8.859999999999856,0.048783336,-0.20086539,0.6383299,-2.1142046,0.9388999,-1.724778
887,8.869999999999855,0.05780825,-0.20312162,0.6676609,-1.6826283,-0.34132096,-1.8048013
888,8.879999999999855,0.07969977,-0.20976834,0.676259,-0.8454375,-4.075082,-2.0129538
889,8.889999999999855,0.07969977,-0.20976834,0.676259,-0.8454375,-4.075082,-2.0129538
890,8.899999999999855,0.07969977,-0.20976834,0.676259,-0.8454375,-4.075082,-2.0129538
891,8.909999999999854,-0.07134563,-0.22629368,0.08140719,-2.0103576,-6.376364,-1.5410603
892,8.919999999999854,-0.37227783,-0.58027774,-0.7262009,-3.1609223,-4.5497246,-1.1435398
893,8.929999999999854,-0.48136955,-0.91237026,-0.7329696,-5.4932055,-0.06414085,-0.34116822
894,8.939999999999854,0.15616766,-1.0749408,0.65546507,-6.7928214,2.5659394,-0.031001411
895,8.949999999999854,0.13659334,-1.1369566,0.79785144,-6.3009224,3.1086931,-0.6589709
896,8.959999999999853,0.13659334,-1.1369566,0.79785144,-6.3009224,3.1086931,-0.6589709
897,8.969999999999853,-0.060125455,-1.2683057,0.5109445,-5.626527,3.4261904,-0.96684694
898,8.979999999999853,-0.36642382,-2.113355,-1.2906241,0.0842994,-3.9768856,-0.6973027
899,8.989999999999853,-0.36642382,-2.113355,-1.2906241,0.0842994,-3.9768856,-0.6973027
900,8.999999999999853,-0.41898784,-1.3513594,-0.20507295,2.7301095,-5.108361,-0.4373795
901,9.009999999999852,-0.44587967,-1.0531712,0.10488417,4.392274,-3.941608,-0.2677117
902,9.019999999999852,-0.47929627,-0.84090275,0.25251475,5.615684,-1.8383989,0.35888332
903,9.029999999999852,-0.47819862,-0.6549163,0.32818988,6.014732,-0.91721416,0.8923214
904,9.039999999999852,-0.44575772,-0.5753994,0.2987979,6.2766404,-0.2751948,1.3377949
905,9.049999999999851,-0.44575772,-0.5753994,0.2987979,6.2766404,-0.2751948,1.3377949
906,9.059999999999851,-0.44575772,-0.5753994,0.2987979,6.2766404,-0.2751948,1.3377949
907,9.069999999999851,-0.20275573,-0.5409462,0.10146933,6.4951773,0.9615019,2.131767
908,9.07999999999985,-0.043051295,-0.48136955,-0.013598354,6.1103325,1.9656117,1.9233092
909,9.08999999999985,0.038965687,-0.4346595,-0.053844605,5.7419806,2.232407,1.5027285
910,9.09999999999985,0.097200796,-0.37392426,-0.06421106,5.3001723,2.282498,0.95172805
911,9.10999999999985,0.10872585,-0.3108718,-0.035124,5.3001723,2.282498,0.95172805
912,9.11999999999985,0.08104131,-0.19306004,-0.017866896,4.5575128,2.2844832,-0.23487769
913,9.12999999999985,0.08213894,-0.15452121,-0.0037197291,4.4823766,2.2667682,-0.34895676
914,9.13999999999985,0.061893854,-0.085004956,-0.022318374,4.3001857,2.1847596,-0.51251596
915,9.14999999999985,0.071040735,-0.07128465,-0.017013188,4.223828,2.0951152,-0.54321194
916,9.15999999999985,0.062076796,-0.063967146,0.0012805625,4.184427,1.9813415,-0.56382865
917,9.169999999999849,-0.15488708,-0.015488708,-1.164702,4.0295725,1.566564,-0.5569564
918,9.179999999999849,-0.26861322,-0.1325687,-0.98017913,-2.6946793,-9.832487,0.8019133
919,9.189999999999849,0.10165227,-0.13769096,0.036221627,-2.7870727,-9.736733,0.77274454
920,9.199999999999848,0.10165227,-0.13769096,0.036221627,-2.7870727,-9.736733,0.77274454
921,9.209999999999848,-0.18818171,-0.5224695,0.19787739,-2.8608346,-7.5250964,0.21624629
922,9.219999999999848,-0.37166804,-0.80370545,0.2365382,-3.068376,-6.1231604,-0.04886922
923,9.229999999999848,-0.37166804,-0.80370545,0.2365382,-4.2719336,-1.5490016,-0.2845105
924,9.239999999999847,-2.1323805,-2.9640756,0.90334535,-4.923574,1.8771889,0.04841107
925,9.249999999999847,-2.8572397,-3.9755368,1.0269502,-4.999016,6.401868,1.1267409
926,9.259999999999847,-3.0293841,-4.5613637,0.8871859,-3.6885571,7.645131,2.4853053
927,9.269999999999847,-3.0418847,-5.2965894,1.1158578,-0.14844026,0.915687,3.546989
928,9.279999999999847,-1.2250104,-4.1395707,0.09653002,5.7173934,-8.981093,3.195436
929,9.289999999999846,0.02713573,-3.3469024,-4.733874,4.615392,-6.962642,1.1346822
930,9.299999999999846,0.37489992,-2.8796802,-4.3901343,1.2366967,0.35476,-0.032528576
931,9.309999999999846,0.37489992,-2.8796802,-4.3901343,1.2366967,0.35476,-0.032528576
932,9.319999999999846,0.37489992,-2.8796802,-4.3901343,1.2366967,0.35476,-0.032528576
933,9.329999999999846,0.37489992,-2.8796802,-4.3901343,1.2366967,0.35476,-0.032528576
934,9.339999999999845,-0.4100849,-1.2785501,-0.031892106,-0.120493166,6.27267,0.9952522
935,9.349999999999845,0.04616123,-0.46264893,-0.7190664,-0.09254608,3.5115588,0.052534413
936,9.359999999999845,0.04616123,-0.46264893,-0.7190664,-0.09254608,3.5115588,0.052534413
937,9.369999999999845,0.04616123,-0.46264893,-0.7190664,-0.09254608,3.5115588,0.052534413
938,9.379999999999844,0.04616123,-0.46264893,-0.7190664,-0.09254608,3.5115588,0.052534413
939,9.389999999999844,0.14958191,-0.3217871,-0.913224,-0.09254608,3.5115588,0.052534413
940,9.399999999999844,0.23970911,-0.13055639,0.16519257,-2.5254695,4.2966733,-2.4054346
941,9.409999999999844,0.21312219,-0.113299295,0.2836141,-2.311056,3.7201693,-2.7160597
942,9.419999999999844,0.17372964,-0.12622687,0.27855286,-1.9869919,2.5902214,-3.023783
943,9.429999999999843,0.17372964,-0.12622687,0.27855286,-1.9869919,2.5902214,-3.023783
944,9.439999999999843,0.17372964,-0.12622687,0.27855286,-1.9869919,2.5902214,-3.023783
945,9.449999999999843,0.15775311,-0.13927643,0.32825086,-1.7683022,1.3805555,-3.2082644
946,9.459999999999843,-0.014878917,-0.1554359,0.047929626,-1.870622,-3.5527923,-3.3525813
947,9.469999999999843,-0.16732684,-0.27440625,0.007927292,-3.278972,-5.2311444,-2.46759
948,9.479999999999842,-0.16732684,-0.27440625,0.007927292,-3.278972,-5.2311444,-2.46759
949,9.489999999999842,-0.18482786,-0.40002334,0.07750452,-3.898542,-5.2684073,-1.8571831
950,9.499999999999842,-0.18482786,-0.40002334,0.07750452,-3.898542,-5.2684073,-1.8571831
951,9.509999999999842,-0.23300138,-0.82986546,-0.115006715,-4.4273987,-4.57141,-1.3556627
952,9.519999999999841,-0.07665081,-1.2770257,-0.036343586,-6.1188846,1.7785342,-0.49205196
953,9.529999999999841,-0.07665081,-1.2770257,-0.036343586,-6.212194,2.4759896,-0.53221637
954,9.539999999999841,0.640891,-2.494597,-1.2884898,-6.212194,2.4759896,-0.53221637
955,9.54999999999984,-0.024330689,-1.3266628,0.025733208,-0.12675454,5.0283375,-3.1810808
956,9.55999999999984,0.29178533,-2.751746,-0.726018,-0.12675454,5.0283375,-3.1810808
957,9.56999999999984,-0.5204572,-1.9724321,-0.82998747,4.73726,-1.975691,-1.9165897
958,9.57999999999984,-0.5880221,-1.2358648,-0.50002915,5.034904,-3.263853,-0.24083363
959,9.58999999999984,-0.585339,-0.8707825,-0.05079565,4.8588223,-2.984993,0.7870999
960,9.59999999999984,-0.48234522,-0.62131673,0.18348631,4.9312096,-2.7514899,1.508379
961,9.60999999999984,-0.35556954,-0.45649004,0.27385744,5.204419,-2.4654522,2.169488
962,9.61999999999984,-0.35556954,-0.45649004,0.27385744,5.3934817,-2.2319489,2.431549
963,9.62999999999984,-0.20409729,-0.32434818,0.16116793,5.7276254,-1.106277,2.877939
964,9.639999999999839,-0.16074108,-0.29849303,0.094517715,5.7276254,-1.106277,2.877939
965,9.649999999999839,0.005427146,-0.22751327,0.009573729,5.667913,-0.5352707,2.9205468
966,9.659999999999838,0.040612124,-0.19964579,-0.016220458,5.5616226,-0.19929479,2.8475482
967,9.669999999999838,0.040612124,-0.19964579,-0.016220458,5.165171,0.1956296,2.4652994
968,9.679999999999838,0.103359684,-0.13793488,-0.04268542,4.8776064,0.21899518,2.1734586
969,9.689999999999838,0.103359684,-0.13793488,-0.04268542,4.8776064,0.21899518,2.1734586
970,9.699999999999838,0.09256637,-0.120921694,-0.042990312,4.676937,0.20143281,1.9533943
971,9.709999999999837,0.120189935,-0.09640807,-0.03963646,4.3299656,0.09239337,1.506241
972,9.719999999999837,0.10604277,-0.07945585,-0.05408852,4.3299656,0.09239337,1.506241
973,9.729999999999837,0.105067104,-0.07165052,-0.057625312,3.8229475,-0.17806722,0.7996226
974,9.739999999999837,0.09884723,-0.066894144,-0.068479605,3.599829,-0.26648995,0.52442783
975,9.749999999999837,-0.25440508,-0.20434119,-1.337822,3.140611,-0.39920044,0.27137688
976,9.759999999999836,-0.6541845,-0.53033584,-2.371419,-0.14095716,-1.9619465,0.81000733
977,9.769999999999836,0.029635875,-0.098420374,-0.2022679,-2.0002782,-2.7861564,1.0193814
978,9.779999999999836,0.11958014,-0.13897152,-0.104396336,-2.4510968,-2.7617218,0.5870415
979,9.789999999999836,0.09793254,-0.25074634,-0.11348223,-2.9110782,-2.634662,0.10415252
980,9.799999999999836,-0.09695688,-0.6372323,-0.040002335,-3.7145188,-2.198046,-0.6881397
981,9.809999999999835,-0.66613644,-1.279099,0.13708118,-4.548808,-1.1791227,-1.3875804
982,9.819999999999835,-1.8160816,-2.5694182,0.576619,-5.4840426,1.1104003,-1.7649424
983,9.829999999999835,-3.1356099,-4.2708592,0.95615333,-5.693264,3.9434407,-0.90209526
984,9.839999999999835,-3.8321137,-5.321042,0.79394877,-5.1957145,5.284595,0.8388707
985,9.849999999999834,-2.2532413,-5.3496413,0.5572277,1.1559098,-6.4182086,4.171446
986,9.859999999999834,-1.3402001,-4.035662,0.050246835,3.9078577,-10.382876,4.6442556
987,9.869999999999834,-1.3402001,-4.035662,0.050246835,2.6273315,-3.940081,1.5488489
988,9.879999999999834,0.327824,-2.28306,-3.5319743,0.1740966,4.825835,1.1045971
989,9.889999999999834,-0.11708001,-1.721137,-1.5024657,-0.68752885,8.208502,0.9298896
990,9.899999999999833,-0.24281906,-1.4878308,-0.70790714,-0.59483004,8.159785,0.65668017
991,9.909999999999833,-0.20330454,-1.2269009,-0.2731257,-0.1525636,6.586044,0.20219639
992,9.919999999999833,-0.05335677,-0.90115017,-0.3506302,0.021685716,5.071556,-0.37400225
993,9.929999999999833,0.072870106,-0.60235226,-0.8740144,-0.16584991,4.348139,-0.86758137
994,9.939999999999833,0.18671821,-0.30276155,-1.4281931,-1.2415836,4.34539,-1.4628695
995,9.949999999999832,0.2148906,-0.25928342,-1.1497012,-2.415514,4.796056,-1.9761491
996,9.959999999999832,0.14214244,-0.2961758,-0.51740825,-3.5266778,4.978552,-2.6028967
997,9.969999999999832,0.08110229,-0.29812714,0.039941356,-3.8594465,4.805982,-3.067918
998,9.979999999999832,-0.012988563,-0.24696562,0.3595332,-3.731012,4.359745,-3.30753
999,9.989999999999831,-0.012988563,-0.24696562,0.3595332,-3.3163874,3.4429893,-3.4553592
1000,9.999999999999831,-0.012988563,-0.24696562,0.3595332,-3.3163874,3.4429893,-3.4553592
