id,timestamp,acc_x,acc_y,acc_z,gyro_x,gyro_y,gyro_z
0,0,0.4932605,0.29111454,0.042502478,-0.5007568,-0.14508049,1.69622
1,0.01,0.65320885,0.26623505,0.044880666,-0.18585575,0.1638646,2.1238258
2,0.02,0.8091326,0.27580878,6.0979168e-05,-0.03390302,0.5751296,2.195297
3,0.03,1.0182911,0.25050244,-0.092078544,0.052687127,1.3112222,1.9445368
4,0.04,1.1060401,0.19458452,-0.2084268,0.041080687,2.1256583,1.3758212
5,0.05,0.910419,-0.0043295207,-0.1723881,-0.32543847,2.9373455,0.5823073
6,0.060000000000000005,0.8451712,-0.03750219,-0.057625312,-0.50961435,2.5471554,0.75777835
7,0.07,0.8451712,-0.03750219,-0.057625312,-0.50961435,2.5471554,0.75777835
8,0.08,0.77376467,-0.08909056,0.097749606,-0.5917757,1.4457654,1.5630515
9,0.09,0.77376467,-0.08909056,0.097749606,-0.6009387,0.88117313,1.9947804
10,0.09999999999999999,0.7879728,-0.063418336,0.17165637,-0.6009387,0.88117313,1.9947804
11,0.10999999999999999,1.0159739,-0.006707709,0.25166103,-0.32589662,0.5331327,2.3391557
12,0.11999999999999998,1.1292123,0.034819108,0.20745113,-0.16691893,0.79366666,2.038152
13,0.12999999999999998,1.1468961,0.03731925,0.1920234,-0.16691893,0.79366666,2.038152
14,0.13999999999999999,1.100796,0.0015854583,0.2441606,-0.06490443,1.4860824,1.087951
15,0.15,1.0640866,0.006097917,0.20671937,-0.1133155,1.8084666,0.5589417
16,0.16,1.0640866,0.006097917,0.20671937,-0.1133155,1.8084666,0.5589417
17,0.17,0.96408063,0.009939604,0.21537842,-0.15790866,1.7918205,0.25045475
18,0.18000000000000002,0.85700125,-0.041343875,0.23105007,-0.06811147,1.6320792,-0.008857546
19,0.19000000000000003,0.8499886,-0.052381106,0.15653352,0.04718934,1.5949692,-0.0018325958
20,0.20000000000000004,0.8754169,-0.09781059,-0.07658983,0.11682798,1.4952455,-0.04016439
21,0.21000000000000005,0.8754169,-0.09781059,-0.07658983,0.041691553,1.3800973,-0.023060163
22,0.22000000000000006,1.0356092,-0.14506944,-0.22446433,-0.377362,1.0137309,0.036957346
23,0.23000000000000007,1.0356092,-0.14506944,-0.22446433,-0.6026186,0.643852,0.08353582
24,0.24000000000000007,1.0356092,-0.14506944,-0.22446433,-0.6026186,0.643852,0.08353582
25,0.25000000000000006,1.2165344,-0.16263144,-0.1235438,-0.73655075,0.14630222,0.18997909
26,0.26000000000000006,1.2681228,-0.2787358,-0.24531919,-0.9831876,-0.7651087,0.6093381
27,0.2700000000000001,1.2319012,-0.32831186,-0.14958191,-1.1409435,-1.3307699,0.8724683
28,0.2800000000000001,1.1421399,-0.43392777,0.068174705,-1.1983649,-1.7246253,1.353372
29,0.2900000000000001,1.1421399,-0.43392777,0.068174705,-1.1983649,-1.7246253,1.353372
30,0.3000000000000001,1.270257,-0.40752378,0.4545997,-0.8524625,-2.0645719,1.9367483
31,0.3100000000000001,1.4521579,-0.53125054,0.42282957,-0.5740606,-1.9201022,1.8901697
32,0.3200000000000001,1.5344188,-0.61015755,0.4314886,-0.6743952,-1.5285375,1.3704761
33,0.3300000000000001,1.536858,-0.6894305,0.48265013,-0.9112582,-1.3694072,1.0453432
34,0.34000000000000014,1.4980142,-0.7850458,0.6715026,-1.31672,-1.2102767,0.6078109
35,0.35000000000000014,1.4980142,-0.7850458,0.6715026,-1.31672,-1.2102767,0.6078109
36,0.36000000000000015,1.3006856,-1.0495734,1.3681896,-1.8548924,-0.27168232,-0.3315471
37,0.37000000000000016,1.2028751,-1.0640255,1.4599632,-2.0622811,0.19685133,-0.44868052
38,0.38000000000000017,1.1496402,-1.0203644,1.639242,-2.6158776,0.6178902,-0.601855
39,0.3900000000000002,1.0789654,-0.8056568,2.1534183,-3.2494977,0.9995282,-0.6429357
40,0.4000000000000002,1.0789654,-0.8056568,2.1534183,-3.7297904,0.6218608,-0.52687126
41,0.4100000000000002,1.1920208,-0.62302417,2.1995797,-3.6809213,-0.1797471,-0.50503284
42,0.4200000000000002,1.3101374,-0.3567891,2.1682363,-3.6809213,-0.1797471,-0.50503284
43,0.4300000000000002,1.3328216,-0.12348281,2.247936,-3.5340083,-0.8721629,-0.62964934
44,0.4400000000000002,1.2436092,0.32221392,2.478864,-2.573117,-1.1508701,-1.6158913
45,0.45000000000000023,1.0909173,0.4908823,2.338856,-1.9805778,-0.7295258,-2.3038783
46,0.46000000000000024,0.8369391,0.54741,2.061218,-1.3104587,-0.03313944,-3.0059152
47,0.47000000000000025,0.68888164,0.4736252,1.8496811,-0.7301367,0.7304421,-3.3209689
48,0.48000000000000026,0.6019254,0.22336671,1.6533891,-0.7301367,0.7304421,-3.3209689
49,0.49000000000000027,0.518201,-0.11982407,1.4697809,-0.33551773,1.3516921,-3.3260086
50,0.5000000000000002,0.518201,-0.11982407,1.4697809,0.45188758,1.3190107,-2.4191792
51,0.5100000000000002,0.37947336,-0.52673805,0.9987778,0.6986771,0.8022188,-1.4332426
52,0.5200000000000002,0.46673456,-0.6061329,0.70089453,0.8257371,-0.10522154,0.008857546
53,0.5300000000000002,0.7274814,-0.5529591,0.5200913,0.783282,-1.026559,1.1464413
54,0.5400000000000003,0.8999306,-0.49283364,0.54350734,0.72036284,-1.416902,1.5170839
55,0.5500000000000003,1.1137846,-0.33422682,0.6596726,0.61712664,-1.5906931,1.596649
56,0.5600000000000003,1.2778794,-0.24037987,0.72400564,0.54519725,-1.396438,1.2846496
57,0.5700000000000003,1.3483104,-0.17129049,0.7063217,0.37782016,-1.0138836,0.70829827
58,0.5800000000000003,1.331663,-0.17476629,0.7179077,0.22159137,-0.7603745,0.27687466
59,0.5900000000000003,1.299527,-0.20580468,0.8290728,0.13439035,-0.50640726,-0.0036651916
60,0.6000000000000003,1.3313582,-0.24117261,0.83663416,0.16707164,-0.30390546,-0.2134974
61,0.6100000000000003,1.3276384,-0.23019636,0.61082834,0.23640485,-0.4184427,-0.3998113
62,0.6200000000000003,1.2565976,-0.18866955,0.62717074,0.07162395,-0.6748534,-0.5795584
63,0.6300000000000003,1.2565976,-0.18866955,0.62717074,0.07162395,-0.6748534,-0.5795584
64,0.6400000000000003,1.0602448,-0.124580435,0.7730329,0.009468411,-0.799928,-0.6772968
65,0.6500000000000004,0.98993576,-0.18159597,0.77059376,0.08552113,-0.7860308,-0.7160868
66,0.6600000000000004,0.963227,-0.18629137,0.71388316,0.37980548,-0.70448035,-0.44791695
67,0.6700000000000004,0.9501774,-0.18025441,0.649855,0.4288274,-0.68798697,-0.2591596
68,0.6800000000000004,0.9501774,-0.18025441,0.649855,0.4156938,-0.7012733,-0.10629055
69,0.6900000000000004,0.986521,-0.16586334,0.6650998,0.4213443,-0.7655669,0.063988134
70,0.7000000000000004,1.0064002,-0.12628786,0.649733,0.45570546,-0.808022,0.124311075
71,0.7100000000000004,1.0064002,-0.12628786,0.649733,0.45570546,-0.808022,0.124311075
72,0.7200000000000004,1.0064002,-0.12628786,0.649733,0.5707009,-0.89858276,0.2454151
73,0.7300000000000004,1.039024,-0.08213894,0.5316164,0.5707009,-0.89858276,0.2454151
74,0.7400000000000004,1.0781727,-0.0910419,0.5666794,0.54611355,-0.94027436,0.31505376
75,0.7500000000000004,1.1295171,-0.107628234,0.6132065,0.6806566,-1.1600331,0.44776422
76,0.7600000000000005,1.2094609,-0.11866546,0.66729504,0.6806566,-1.1600331,0.44776422
77,0.7700000000000005,1.2953805,-0.11153089,0.59979105,0.850019,-1.1713341,0.39385536
78,0.7800000000000005,1.305625,-0.086834334,0.38471758,0.9228647,-1.1235338,0.23747386
79,0.7900000000000005,1.305625,-0.086834334,0.38471758,0.8707884,-0.95829487,-0.06566802
80,0.8000000000000005,1.0478051,-0.16446081,0.3811198,0.4810564,-0.35124752,-0.61376685
81,0.8100000000000005,0.91535825,-0.19238928,0.43228132,0.24633141,0.0106901415,-0.7696902
82,0.8200000000000005,0.77882594,-0.22647662,0.5585082,-0.0030543262,0.3324634,-0.8436049
83,0.8300000000000005,0.68504,-0.21062206,0.6655876,-0.10445796,0.37720928,-0.7415904
84,0.8400000000000005,0.68504,-0.21062206,0.6655876,-0.03680463,0.22892176,-0.5864306
85,0.8500000000000005,0.605889,-0.1062867,0.8243164,0.52183163,-0.4381431,-0.14340061
86,0.8600000000000005,0.61741406,-0.12171442,0.7018092,1.0751228,-0.9334021,0.14340061
87,0.8700000000000006,0.5975958,-0.15610667,0.5036879,1.5082263,-1.3600914,0.37186423
88,0.8800000000000006,0.57546043,-0.22165927,0.31666481,1.6643023,-1.7528778,0.5897904
89,0.8900000000000006,0.5447269,-0.24147749,0.28251648,1.5622878,-1.79854,0.7079928
90,0.9000000000000006,0.5810705,-0.21202457,0.28593132,1.1716396,-1.4188873,0.8042041
91,0.9100000000000006,0.6696122,-0.21287827,0.3038592,0.84681195,-0.74128497,0.59635717
92,0.9200000000000006,0.7650446,-0.22794013,0.27672347,0.63545257,-0.3231477,0.3669773
93,0.9300000000000006,0.834256,-0.18751094,0.29983455,0.4176791,-0.21502456,0.18035796
94,0.9400000000000006,0.8851736,-0.1094576,0.37685126,0.33124167,-0.36209038,0.07284568
95,0.9500000000000006,0.97036153,-0.07079682,0.41478032,0.46838093,-0.59941155,-0.02687807
96,0.9600000000000006,1.0119493,-0.044758707,0.23800169,0.7835874,-0.9786061,-0.20799962
97,0.9700000000000006,0.9973143,-0.059149794,0.047990605,0.9118691,-1.4456125,-0.39736784
98,0.9800000000000006,0.91706574,-0.09439575,0.0032318959,0.7948884,-1.7626517,-0.4885395
99,0.9900000000000007,0.80218095,-0.13323948,0.10878683,0.5897904,-1.8408424,-0.505491
100,1.0000000000000007,0.80218095,-0.13323948,0.10878683,0.42210788,-1.5622878,-0.48441613
101,1.0100000000000007,0.6810154,-0.11592139,0.2759917,0.4364632,-1.0555751,-0.46685377
102,1.0200000000000007,0.68003964,-0.14183754,-0.052625023,0.4812091,-0.65011334,-0.46486846
103,1.0300000000000007,0.68003964,-0.14183754,-0.052625023,0.3633121,-0.2846632,-0.4888449
104,1.0400000000000007,0.7532757,-0.15342359,-0.1575092,0.102319926,-0.054519724,-0.5488624
105,1.0500000000000007,0.8373049,0.014817937,0.014269125,-0.35353827,-0.34468073,-0.78542
106,1.0600000000000007,0.8475495,0.05945469,0.085431814,-0.16050485,-0.6817256,-0.86361074
107,1.0700000000000007,0.81864536,0.077809416,0.089822315,0.160963,-1.00075,-0.95325524
108,1.0800000000000007,0.72961575,0.06994311,0.07927292,0.45570546,-1.2090551,-1.0288498
109,1.0900000000000007,0.56680137,0.03195308,0.10488417,0.68707067,-1.1989758,-1.0128145
110,1.1000000000000008,0.49948034,0.026221042,0.11354321,0.7695375,-0.9786061,-0.9630291
111,1.1100000000000008,0.45167267,-0.0011586042,0.033477563,0.82940227,-0.6791294,-0.9112582
112,1.1200000000000008,0.45606318,-0.03225798,-0.09811548,0.8454375,-0.2687807,-0.829555
113,1.1300000000000008,0.51228595,-0.027562585,-0.2628202,0.7484626,0.038331795,-0.77518797
114,1.1400000000000008,0.60759646,-0.018659625,-0.39551088,0.45662177,0.2134974,-0.7460192
115,1.1500000000000008,0.66497785,0.023294043,-0.35599637,0.094989546,0.04642576,-0.6962337
116,1.1600000000000008,0.6757711,0.05427146,-0.28556544,0.05375614,-0.40042216,-0.6078109
117,1.1700000000000008,0.6835155,0.086285524,-0.1967188,0.05375614,-0.40042216,-0.6078109
118,1.1800000000000008,0.6709538,0.11067719,-0.17427845,0.33765575,-0.9257663,-0.49128836
119,1.1900000000000008,0.6454645,0.09726177,-0.2040363,0.33765575,-0.9257663,-0.49128836
120,1.2000000000000008,0.6454645,0.09726177,-0.2040363,0.33765575,-0.9257663,-0.49128836
121,1.2100000000000009,0.5533859,0.08744413,-0.199036,0.32177326,-0.96593064,-0.43371433
122,1.2200000000000009,0.56027657,0.11384811,-0.17293692,0.22220223,-0.6026186,-0.24251351
123,1.2300000000000009,0.6325369,0.13439809,-0.30111513,0.19700404,-0.13408493,-0.30451632
124,1.2400000000000009,0.6735149,0.13525179,-0.4016088,0.05207626,0.011301007,-0.4185954
125,1.2500000000000009,0.6831496,0.16811956,-0.3595332,-0.14355333,0.073303826,-0.56321776
126,1.260000000000001,0.65979457,0.17555903,-0.2672717,-0.17379116,0.082619525,-0.6478226
127,1.270000000000001,0.63143927,0.13897152,-0.2388554,-0.17379116,0.082619525,-0.6478226
128,1.280000000000001,0.5846073,0.13805683,-0.28263843,0.01863139,0.074067414,-0.6637051
129,1.290000000000001,0.5376533,0.14348398,-0.3231286,0.029321533,0.06704246,-0.5902485
130,1.300000000000001,0.47941822,0.16007032,-0.35806966,-0.03970624,0.10354166,-0.3669773
131,1.310000000000001,0.43807435,0.18507177,-0.3782538,-0.10399981,0.17180584,-0.14248432
132,1.320000000000001,0.44478208,0.20995127,-0.38532734,-0.1375974,0.25610524,0.035430185
133,1.330000000000001,0.4732593,0.23696505,-0.36977768,-0.15607607,0.34284812,0.16218472
134,1.340000000000001,0.55015403,0.27702835,-0.33148277,-0.12156218,0.43951756,0.21594086
135,1.350000000000001,0.63009775,0.32129923,-0.36142352,-0.064751714,0.5911648,0.13362677
136,1.360000000000001,0.66595346,0.37300956,-0.41728044,-0.056199603,0.7629707,-0.07742717
137,1.370000000000001,0.62570727,0.32617757,-0.36203334,-0.052534413,0.8872818,-0.2405282
138,1.380000000000001,0.62570727,0.32617757,-0.36203334,-0.003970624,0.97784257,-0.27855456
139,1.390000000000001,0.6229022,0.30599347,-0.41496322,0.00992656,0.98700553,0.043218717
140,1.400000000000001,0.6345492,0.2822116,-0.39404738,-0.05009095,0.95157534,0.30604348
141,1.410000000000001,0.6345492,0.2822116,-0.39404738,-0.05009095,0.95157534,0.30604348
142,1.420000000000001,0.6835155,0.3231896,-0.33995885,-0.12629639,0.96974856,0.5195409
143,1.430000000000001,0.6835155,0.3231896,-0.33995885,-0.21609358,1.0816896,0.6420194
144,1.440000000000001,0.8192551,0.47893035,-0.36050883,-0.36560285,1.4712689,0.5868888
145,1.450000000000001,0.91871214,0.547471,-0.30581054,-0.38652498,1.6526959,0.3659083
146,1.460000000000001,0.9610317,0.6119259,-0.18873052,-0.18799378,1.7765489,-0.02611449
147,1.470000000000001,0.9822524,0.5878392,-0.14970386,0.2744312,1.9814942,-0.39599338
148,1.480000000000001,1.0285966,0.51966447,-0.20885365,0.5833763,2.1125247,-0.6209445
149,1.490000000000001,1.1046376,0.4267322,-0.45447776,0.9025534,2.4090998,-1.1033753
150,1.500000000000001,1.0307308,0.2856874,-0.53240913,0.82634795,2.629164,-1.3481796
151,1.5100000000000011,0.9124313,0.1764737,-0.4806378,0.6009387,2.707202,-1.2568552
152,1.5200000000000011,0.8349877,0.15714332,-0.42898846,0.4802928,2.643672,-0.8622363
153,1.5300000000000011,0.87968546,0.17299789,-0.4224027,0.40561453,2.4339926,-0.37491855
154,1.5400000000000011,1.0320724,0.2335502,-0.38996178,0.28725937,2.1288655,0.13820826
155,1.5500000000000012,1.3308704,0.46929568,-0.23879443,0.08857546,1.977829,0.36987892
156,1.5600000000000012,1.3926421,0.54076326,-0.11921428,-0.04520403,1.9292651,0.279929
157,1.5700000000000012,1.3926421,0.54076326,-0.11921428,-0.059864793,2.0129538,-0.03970624
158,1.5800000000000012,1.3913617,0.48295498,-0.052686002,0.23930646,2.412765,-0.80771655
159,1.5900000000000012,1.4278882,0.31294507,-0.09457869,0.41462478,2.4698808,-0.9109528
160,1.6000000000000012,1.4278882,0.31294507,-0.09457869,0.41462478,2.4698808,-0.9109528
161,1.6100000000000012,1.4905138,0.13720313,-0.31062788,0.59559363,2.2401955,-0.9798279
162,1.6200000000000012,1.4905138,0.13720313,-0.31062788,0.5849035,1.8299996,-0.92927873
163,1.6300000000000012,1.2134244,0.11317733,-0.2736135,0.23762658,0.999681,-0.56337047
164,1.6400000000000012,1.1119552,0.14580119,-0.23507468,0.4280638,1.4033102,-0.7852673
165,1.6500000000000012,1.1119552,0.14580119,-0.23507468,-0.15103643,0.4083634,0.071318515
166,1.6600000000000013,1.0102419,0.16397297,-0.01603752,-0.30680707,0.40439278,0.29810223
167,1.6700000000000013,1.0102419,0.16397297,-0.01603752,-0.37491855,0.48609602,0.52488595
168,1.6800000000000013,1.0102419,0.16397297,-0.01603752,-0.37491855,0.48609602,0.52488595
169,1.6900000000000013,1.018535,0.14909407,0.19031598,-0.37491855,0.48609602,0.52488595
170,1.7000000000000013,1.2483655,0.09384694,0.14848427,-0.22968534,0.7695375,0.8732319
171,1.7100000000000013,1.2886118,0.10872585,0.1662292,-0.2602286,0.8022188,0.81306165
172,1.7200000000000013,1.2886118,0.10872585,0.1662292,-0.30069843,0.70906186,0.7495316
173,1.7300000000000013,1.1966553,0.005305188,0.30550563,-0.34895676,0.57818395,0.78038037
174,1.7400000000000013,1.1402494,0.010915271,0.34337372,-0.40576723,0.5560401,0.90117896
175,1.7500000000000013,1.1367127,0.040612124,0.33270234,-0.45097128,0.61941737,0.981355
176,1.7600000000000013,1.1451279,0.08555377,0.345386,-0.38912117,0.7173085,0.9654725
177,1.7700000000000014,1.2876971,0.06561358,0.08299265,-0.09621128,1.2797627,0.41813725
178,1.7800000000000014,1.2876971,0.06561358,0.08299265,-0.09621128,1.2797627,0.41813725
179,1.7900000000000014,1.1869595,0.046588086,-0.02207446,-0.15668693,1.4643967,0.06093381
180,1.8000000000000014,0.9735324,-0.009695687,0.0066467295,-0.5271767,1.2212723,-0.16294831
181,1.8100000000000014,0.9735324,-0.009695687,0.0066467295,-0.5271767,1.2212723,-0.16294831
182,1.8200000000000014,0.7177858,-0.07829725,0.2315379,-0.59956425,0.7475463,0.061086524
183,1.8300000000000014,0.61649936,-0.034514207,0.24605095,-0.5936083,0.11301007,0.91889405
184,1.8400000000000014,0.61649936,-0.034514207,0.24605095,-0.55573463,-0.13362677,1.4462235
185,1.8500000000000014,0.82834107,0.07969977,0.19610901,-0.4466952,-0.07544186,1.5848899
186,1.8600000000000014,0.82834107,0.07969977,0.19610901,-0.4466952,-0.07544186,1.5848899
187,1.8700000000000014,0.9449942,0.13177599,0.09866429,-0.39614612,0.62949663,1.0207558
188,1.8800000000000014,0.9444453,0.102445,0.07323598,-0.44135013,1.1058189,0.59406644
189,1.8900000000000015,0.9628001,0.07000408,-0.03731925,-0.50869805,1.647809,0.093462385
190,1.9000000000000015,0.9496286,0.04542948,-0.22330572,-0.6743952,1.9022343,-0.3747658
191,1.9100000000000015,0.7212616,0.046710044,-0.2947733,-0.9492846,1.7635679,-0.54473907
192,1.9200000000000015,0.5656428,0.020184105,-0.21757366,-1.0800097,1.4286611,-0.3642284
193,1.9300000000000015,0.5656428,0.020184105,-0.21757366,-1.0800097,1.4286611,-0.3642284
194,1.9400000000000015,0.47838157,0.035733793,-0.07683375,-0.8542951,0.6207918,0.40866885
195,1.9500000000000015,0.4416111,0.042502478,-0.011951917,-0.5945246,0.23136522,0.9049969
196,1.9600000000000015,0.48515025,-0.008354146,0.0032318959,-0.38056904,0.013591751,1.2632693
197,1.9700000000000015,0.6760151,-0.03872177,-0.10171325,-0.20647246,-0.23014349,1.5699236
198,1.9800000000000015,0.85572064,-0.016769271,-0.1484233,-0.20845777,-0.4998405,1.6236799
199,1.9900000000000015,1.059391,-0.038355898,-0.13147108,-0.2828306,-0.9277516,1.483028
200,2.0000000000000013,1.2873312,-0.07293109,-0.09128582,-0.364992,-1.7460055,0.6931793
201,2.010000000000001,1.3266628,-0.09988388,-0.06372323,-0.364992,-1.7460055,0.6931793
202,2.020000000000001,1.2008628,-0.16921718,0.13323948,-0.29840767,-2.0613647,0.20066923
203,2.0300000000000007,0.9811548,-0.27989438,0.38435167,-0.23380867,-1.9792033,0.16279559
204,2.0400000000000005,0.687845,-0.3632529,0.62265825,0.106595986,-1.4726434,0.3463606
205,2.0500000000000003,0.6249145,-0.7245545,0.40179175,0.44073927,-1.278541,0.5726862
206,2.06,0.7544343,-0.8707825,0.15342359,0.25366178,-1.357648,1.4391985
207,2.07,0.7544343,-0.8707825,0.15342359,-0.48548517,-1.7608191,1.8460348
208,2.0799999999999996,1.0259744,-0.9378596,0.5882661,-1.2681563,-2.2094996,2.2026274
209,2.0899999999999994,1.2359258,-0.8875518,1.2647079,-1.7392861,-2.6073256,2.6441302
210,2.099999999999999,1.4673417,-0.83145094,1.5899099,-1.6012305,-2.6413813,2.9339857
211,2.109999999999999,1.8713896,-0.7823017,1.7112583,-1.4337007,-2.4207063,2.9083295
212,2.1199999999999988,1.8713896,-0.7823017,1.7112583,-1.4337007,-2.4207063,2.9083295
213,2.1299999999999986,2.3963592,-0.5091151,1.5460049,-2.5146267,-0.89965177,1.8555032
214,2.1399999999999983,2.4505088,-0.28434587,1.7547975,-3.425427,-0.28053987,0.34116822
215,2.149999999999998,2.4505088,-0.28434587,1.7547975,-3.7723982,0.16676621,-1.029308
216,2.159999999999998,1.3476397,-0.14452063,2.1957378,-3.7723982,0.16676621,-1.029308
217,2.1699999999999977,1.8850491,-0.17549805,2.1342099,-3.7531562,0.30298916,-2.1833851
218,2.1799999999999975,0.76528853,-0.075980045,2.1890302,-3.0616567,-0.15974127,-2.732553
219,2.1899999999999973,0.41697556,0.35441092,2.1095743,-1.8600847,-0.5534439,-1.7851009
220,2.199999999999997,0.6149139,0.48917487,1.9715176,-1.8600847,-0.5534439,-1.7851009
221,2.209999999999997,1.0262794,0.33447072,1.572104,-1.2006557,-0.29871312,-1.5506815
222,2.2199999999999966,1.2940999,0.048905294,1.2269619,-0.5187773,0.1740966,-1.6914859
223,2.2299999999999964,1.2940999,0.048905294,1.2269619,-0.15928312,0.41248676,-2.0767891
224,2.239999999999996,1.2038507,-0.4124021,0.8657212,0.08109236,0.13805555,-2.2062926
225,2.249999999999996,1.0894538,-0.45466065,0.8315119,0.20051652,-0.45005497,-1.7321084
226,2.259999999999996,0.989387,-0.47600338,0.90383315,0.2848159,-0.6114761,-1.4813483
227,2.2699999999999956,0.9115166,-0.3662409,0.92706627,0.36575556,-0.57619864,-1.1397219
228,2.2799999999999954,0.8843199,-0.29623678,0.9259077,0.37140608,-0.49296826,-0.96990126
229,2.289999999999995,0.8843199,-0.29623678,0.9259077,0.41691554,-0.37507126,-0.7290677
230,2.299999999999995,0.99103343,-0.29026082,0.924993,0.63331455,-0.27947086,-0.5655085
231,2.3099999999999947,0.986399,-0.39002275,0.66595346,0.82894415,-0.24740042,-0.35155296
232,2.3199999999999945,1.033414,-0.4735032,0.54167795,0.8268061,-0.3287982,-0.085673854
233,2.3299999999999943,1.0975031,-0.5377143,0.45831943,0.7255552,-0.61819565,0.21456642
234,2.339999999999994,1.1454327,-0.5458855,0.39947453,0.5374087,-1.0839803,0.5395467
235,2.349999999999994,1.2507437,-0.36916786,0.5859488,0.38881573,-1.3423764,0.71929383
236,2.3599999999999937,1.2507437,-0.36916786,0.5859488,0.33215797,-1.3217597,0.7545713
237,2.3699999999999934,1.3433101,-0.26532036,0.57735074,0.3491095,-1.0288498,0.6041457
238,2.3799999999999932,1.3813611,-0.231233,0.5061271,0.24312437,-0.7163922,0.30741793
239,2.389999999999993,1.4125215,-0.17379062,0.4238662,0.07315111,-0.52870387,0.03268129
240,2.399999999999993,1.4088627,-0.1243975,0.47051528,-0.09208794,-0.3494149,-0.2284636
241,2.4099999999999926,1.3939228,-0.09476163,0.4841136,-0.2209805,-0.15561792,-0.64476824
242,2.4199999999999924,1.3939228,-0.09476163,0.4841136,-0.1740966,-0.30680707,-0.7122689
243,2.429999999999992,1.2955024,-0.0658575,0.55686176,-0.025198191,-0.59864795,-0.6649268
244,2.439999999999992,1.2355598,-0.09268834,0.523933,0.14630222,-0.84650654,-0.5477934
245,2.4499999999999917,1.1794591,-0.103359684,0.48697963,0.14630222,-0.84650654,-0.5477934
246,2.4599999999999915,1.1434203,-0.083175585,0.47075918,0.059253927,-0.7845037,-0.41279218
247,2.4699999999999913,1.1310416,-0.04622221,0.46728337,-0.01450805,-0.7325801,-0.4269948
248,2.479999999999991,1.1310416,-0.04622221,0.46728337,-0.01450805,-0.7325801,-0.4269948
249,2.489999999999991,1.0707942,0.03561183,0.5816193,-0.21502456,-0.24724771,-0.7067711
250,2.4999999999999907,1.0522565,0.045673396,0.6948576,-0.12568553,-0.16142114,-0.8043568
251,2.5099999999999905,1.018596,0.04610025,0.74662894,0.13469578,-0.28298333,-0.7655669
252,2.5199999999999902,0.98810637,0.019269416,0.64143986,0.41996986,-0.54702985,-0.6073528
253,2.52999999999999,0.95560455,-0.022318374,0.49929744,0.69058317,-0.8756753,-0.37797287
254,2.53999999999999,0.9240173,-0.086285524,0.38331506,0.86590147,-1.3475688,0.02275473
255,2.5499999999999896,0.9087725,-0.07969977,0.3392271,0.7883216,-1.4672983,0.23564127
256,2.5599999999999894,0.9118215,-0.02859923,0.29916382,0.5684101,-1.280679,0.3080288
257,2.569999999999989,0.88834447,-0.03164819,0.31014004,0.38041633,-0.8205447,0.21563543
258,2.579999999999989,0.8644407,-0.031831127,0.30800578,0.09666943,-0.024587326,-0.054825157
259,2.5899999999999888,0.8862712,0.0009756667,0.45008725,-0.12751812,0.3642284,-0.34284812
260,2.5999999999999885,0.8703556,0.07573613,0.68632054,-0.16905695,0.48090366,-0.52473325
261,2.6099999999999883,0.85596454,0.08463909,0.7513853,0.09162979,0.39568797,-0.58261275
262,2.619999999999988,0.85596454,0.08463909,0.7513853,0.09162979,0.39568797,-0.58261275
263,2.629999999999988,0.85596454,0.08463909,0.7513853,0.09162979,0.39568797,-0.58261275
264,2.6399999999999877,0.85596454,0.08463909,0.7513853,1.0708468,-0.86758137,0.16768251
265,2.6499999999999875,0.82035273,0.015671646,0.6008277,0.66859204,0.025961773,-0.50900346
266,2.6599999999999873,0.8521839,-0.23806266,0.14567922,-0.1386664,-0.86162543,1.052979
267,2.669999999999987,0.95371425,-0.11427496,0.6977846,-0.55573463,-0.37858373,0.9334021
268,2.679999999999987,1.0612814,0.1884866,1.2769647,-0.45906523,-0.35888332,0.7162395
269,2.6899999999999866,1.0612814,0.1884866,1.2769647,-0.45906523,-0.35888332,0.7162395
270,2.6999999999999864,1.4857575,0.32014063,0.6554041,1.6293303,-0.6429357,-0.52580225
271,2.709999999999986,1.3344681,0.2490999,0.22690348,2.0737348,-0.9271407,-1.3684908
272,2.719999999999986,0.951458,0.042746395,0.14128873,1.8257235,-1.162782,-1.9929478
273,2.7299999999999858,0.679125,-0.20836583,0.17866896,1.3121386,-1.2052372,-2.0926716
274,2.7399999999999856,0.5358849,-0.26940596,0.10781116,0.99265605,-1.1716396,-1.9785925
275,2.7499999999999853,0.4177073,-0.27410138,-0.064820856,0.728915,-1.1217014,-1.7628044
276,2.759999999999985,0.33764166,-0.2748941,-0.14799644,0.52106804,-1.2250903,-1.484708
277,2.769999999999985,0.33764166,-0.2748941,-0.14799644,0.22159137,-1.3923146,-0.9830349
278,2.7799999999999847,0.27221102,-0.2329404,-0.16574138,0.065973446,-1.4537066,-0.66813385
279,2.7899999999999845,0.4739911,0.016708292,-0.06299148,0.00992656,-1.5436565,-0.1947133
280,2.7999999999999843,0.6563188,0.02414775,-0.22257397,0.18234327,-1.5981762,0.13561209
281,2.809999999999984,0.70113844,0.029757833,-0.22263494,0.25625798,-1.7136297,0.21487185
282,2.819999999999984,0.70113844,0.029757833,-0.22263494,0.118507855,-1.7365372,0.123547494
283,2.8299999999999836,0.68064946,0.016342416,-0.11305538,-0.08460484,-1.4769194,-0.04138612
284,2.8399999999999834,0.5901564,0.032623854,-0.038599815,-0.32482758,-0.39263365,-0.39492437
285,2.849999999999983,0.5901564,0.032623854,-0.038599815,-0.32482758,-0.39263365,-0.39492437
286,2.859999999999983,0.5295431,0.062442668,-0.042990312,-0.30757064,0.2848159,-0.45753807
287,2.869999999999983,0.5453367,0.17305888,0.07274815,-0.04642576,0.3231477,-0.3397938
288,2.8799999999999826,0.66198987,0.18068127,-0.046527103,0.40454552,0.2396119,-0.24724771
289,2.8899999999999824,0.7097975,0.17464434,-0.19854817,0.72036284,-0.10629055,-0.19242255
290,2.899999999999982,0.7097975,0.17464434,-0.19854817,0.7797695,-0.4156938,-0.08933904
291,2.909999999999982,0.7019922,0.052686002,-0.51972544,0.6814202,-0.7872526,0.03634648
292,2.9199999999999817,0.66461194,0.023537958,-0.5664965,0.49754974,-1.2140946,0.18875736
293,2.9299999999999815,0.6340004,-0.011525063,-0.50740767,0.24969117,-1.6316211,0.38453966
294,2.9399999999999813,0.6100966,0.026403978,-0.4774059,-0.0096211275,-1.7600555,0.48991394
295,2.949999999999981,0.5000902,0.06854059,-0.21976891,-0.2510656,-1.4075862,0.46731192
296,2.959999999999981,0.5000902,0.06854059,-0.21976891,-0.3155119,-1.1114693,0.41554108
297,2.9699999999999807,0.5110054,0.10598179,-0.11488476,-0.3462079,-0.7163922,0.32330042
298,2.9799999999999804,0.5441171,0.19031598,-0.012256813,-0.23930646,-0.3032946,0.16554448
299,2.9899999999999802,0.6363786,0.18659624,0.020367041,0.064751714,0.18509217,-0.09621128
300,2.99999999999998,0.67131966,0.14506944,-0.23068418,0.3801109,0.82833326,-0.6180429
301,3.00999999999998,0.67131966,0.14506944,-0.23068418,0.3801109,0.82833326,-0.6180429
302,3.0199999999999796,0.5808266,0.13762999,-0.39575478,0.23258694,1.0468704,-0.81199265
303,3.0299999999999794,0.5233842,0.12769037,-0.34648362,0.013897184,0.96852684,-0.806953
304,3.039999999999979,0.4905774,0.124641426,-0.3287387,0.064446285,0.82253003,-0.68493265
305,3.049999999999979,0.48246717,0.13573962,-0.35428897,0.14248432,0.52198434,-0.43233988
306,3.0599999999999787,0.48454046,0.12445848,-0.362948,0.14248432,0.52198434,-0.43233988
307,3.0699999999999785,0.49710217,0.14635001,-0.4103288,0.21059579,0.049632803,0.055741455
308,3.0799999999999783,0.5022244,0.1887915,-0.4103288,0.18096884,-0.023518313,0.1965459
309,3.089999999999978,0.53582394,0.18964522,-0.35788673,0.17547104,-0.01863139,0.27473664
310,3.099999999999978,0.58405846,0.2148906,-0.3255068,0.22724187,0.123242065,0.26221392
311,3.1099999999999777,0.58405846,0.2148906,-0.3255068,0.22724187,0.123242065,0.26221392
312,3.1199999999999775,0.58405846,0.2148906,-0.3255068,0.22724187,0.123242065,0.26221392
313,3.1299999999999772,0.6154627,0.2432459,-0.36111864,0.3436117,0.8229882,-0.022449298
314,3.139999999999977,0.6283903,0.3012371,-0.3744121,0.45204028,1.093296,-0.07192938
315,3.149999999999977,0.69680893,0.2815408,-0.42752492,0.59696805,1.3944527,-0.10888673
316,3.1599999999999766,0.7373601,0.27330863,-0.48112562,0.6507242,1.572978,-0.116675265
317,3.1699999999999764,0.8272434,0.23129399,-0.52893335,0.6400341,1.6913332,-0.114689946
318,3.179999999999976,0.9334691,0.20995127,-0.5578374,0.47326785,1.7767016,-0.19807306
319,3.189999999999976,0.9478602,0.23800169,-0.5014927,0.33536503,1.7647897,-0.26618454
320,3.1999999999999758,1.1100037,0.34861788,-0.5032001,0.29168814,1.7133243,-0.27000242
321,3.2099999999999755,1.1100037,0.34861788,-0.5032001,0.34116822,1.5146403,-0.30069843
322,3.2199999999999753,1.1987895,0.5529591,-0.63150024,0.44165558,1.1646146,-0.48823404
323,3.229999999999975,1.1987895,0.5529591,-0.63150024,0.8520043,0.7141015,-0.9983065
324,3.239999999999975,1.0809777,0.31044495,-0.5010658,1.2087497,0.8680395,-1.1720977
325,3.2499999999999747,1.0809777,0.31044495,-0.5010658,1.2087497,0.8680395,-1.1720977
326,3.2599999999999745,1.1088451,0.23989205,-0.5174692,1.5745052,1.8390098,-1.5334245
327,3.2699999999999743,1.1863497,0.11506769,-0.5458245,1.7203492,2.4243715,-1.6756034
328,3.279999999999974,1.1678121,0.08152915,-0.62064594,1.7203492,2.4243715,-1.6756034
329,3.289999999999974,1.0955517,0.0757971,-0.75047064,1.680643,2.992018,-1.4811954
330,3.2999999999999736,0.94285995,0.17458336,-0.8009614,1.3753631,2.798832,-1.1899655
331,3.3099999999999734,0.8761487,0.27568683,-0.7682766,0.98440933,2.285705,-0.70707655
332,3.319999999999973,0.90438205,0.30989614,-0.78693616,0.798859,2.0140228,-0.45891252
333,3.329999999999973,0.8951742,0.36947277,-0.7253472,0.40851614,1.3368785,-0.279929
334,3.3399999999999728,0.79992473,0.2874558,-0.45777062,0.27275133,0.87598073,-0.12599096
335,3.3499999999999726,0.8074861,0.17726645,-0.17275399,0.39064834,0.77106464,0.14920384
336,3.3599999999999723,0.8982231,0.16342416,-0.11903133,0.61193424,0.93737274,0.22586742
337,3.369999999999972,1.1759832,0.17744938,-0.36691165,0.6123924,1.8619173,-0.22204952
338,3.379999999999972,1.1391518,0.24867305,-0.4358791,0.28939742,2.1876612,-0.51175237
339,3.3899999999999717,1.1391518,0.24867305,-0.4358791,0.28939742,2.1876612,-0.51175237
340,3.3999999999999715,1.0240232,0.2847727,-0.348313,-0.0759,2.1815524,-0.65836
341,3.4099999999999713,0.9086505,0.3175795,-0.23287943,-0.15836681,1.8138117,-0.5349652
342,3.419999999999971,0.80712026,0.29904184,-0.20836583,0.1020145,0.74021596,0.33964106
343,3.429999999999971,0.7424823,0.23855051,-0.24281906,0.11056661,0.48930305,0.65393126
344,3.4399999999999706,0.85212296,0.11945819,-0.36160645,0.00076358154,0.46211955,0.82344633
345,3.4499999999999704,0.8629162,0.061284065,-0.28379703,-0.35414913,0.6479753,0.9586003
346,3.45999999999997,0.8629162,0.061284065,-0.28379703,-0.6375906,0.9088148,1.0940597
347,3.46999999999997,0.9298713,0.046892982,-0.19623096,-0.926988,1.2134838,1.174083
348,3.47999999999997,0.9471894,0.053051874,0.020245085,-1.221425,1.3863586,1.2461652
349,3.4899999999999696,1.0103638,0.14915505,0.22970851,-1.1922562,1.2513574,1.4573717
350,3.4999999999999694,1.2783673,0.2014142,0.35605735,-0.68829244,0.99372506,1.6914859
351,3.509999999999969,1.4720981,0.1829375,0.2948343,-0.01740966,0.8231409,1.5607607
352,3.519999999999969,1.5414314,0.1630583,0.04677102,0.2680171,0.7622071,1.2263119
353,3.5299999999999687,1.5472853,0.06256463,-0.14244732,0.21395555,0.8733846,0.7128797
354,3.5399999999999685,1.4621586,-0.04634417,-0.18921836,-0.020616703,0.96883225,0.2779437
355,3.5499999999999683,1.2962952,-0.11073817,-0.18964522,-0.36147952,0.93324935,-0.055588737
356,3.559999999999968,1.0782337,-0.21415883,-0.109640546,-0.6293439,0.76052725,-0.095753126
357,3.569999999999968,0.92633456,-0.21025616,0.022806209,-0.96791595,0.32788193,0.11804971
358,3.5799999999999677,0.91121167,-0.11098208,0.15787506,-1.1534663,-0.17928895,0.47983465
359,3.5899999999999674,0.91121167,-0.11098208,0.15787506,-1.1534663,-0.17928895,0.47983465
360,3.5999999999999672,0.91121167,-0.11098208,0.15787506,-1.1534663,-0.17928895,0.47983465
361,3.609999999999967,1.4181316,0.1348859,0.16287535,0.13026701,0.1001819,-0.09056077
362,3.619999999999967,1.4181316,0.1348859,0.16287535,0.13026701,0.1001819,-0.09056077
363,3.6299999999999666,1.0495734,0.0001829375,-0.24806325,-0.014049901,1.1181889,-1.0413725
364,3.6399999999999664,0.7391285,-0.06890646,-0.35996002,-0.49205196,1.8872682,-1.3741413
365,3.649999999999966,0.53015286,-0.124031626,-0.43935493,-0.49205196,1.8872682,-1.3741413
366,3.659999999999966,0.47368616,-0.14793546,-0.48295498,-0.8859073,1.4796684,-0.5381723
367,3.6699999999999657,0.52173775,-0.14622805,-0.509298,-0.9969321,0.926988,0.11789699
368,3.6799999999999655,0.6746735,-0.10165227,-0.4250248,-1.1375839,0.102319926,0.9436341
369,3.6899999999999653,0.8390124,-0.014391083,-0.28507763,-1.151481,-0.57803124,1.4773777
370,3.699999999999965,1.0454268,0.10201815,-0.085614756,-0.9072876,-1.2484559,1.8559613
371,3.709999999999965,1.1836057,0.107506275,-0.013598354,-0.47433686,-1.4958563,1.887879
372,3.7199999999999647,1.2461703,0.058540005,-0.04847844,-0.17531833,-1.3745996,1.6971364
373,3.7299999999999645,1.2160466,-0.079638794,-0.22397648,-0.20738874,-1.2127203,1.5372424
374,3.7399999999999642,1.1634825,-0.110006414,-0.31428665,-0.59742624,-0.9045387,1.2191343
375,3.749999999999964,1.1961673,-0.18726702,-0.31977475,-1.016327,-0.74021596,0.9943359
376,3.759999999999964,1.1961673,-0.18726702,-0.31977475,-1.3892603,-0.7528914,0.68508536
377,3.7699999999999636,1.2226323,-0.21928109,0.2822116,-1.5149459,-0.92011577,0.41706824
378,3.7799999999999634,1.2226323,-0.21928109,0.2822116,-1.3820826,-1.1137601,0.1385137
379,3.789999999999963,1.0758555,-0.38715672,0.6360737,-0.9289733,-1.2504412,-0.07345655
380,3.799999999999963,1.0758555,-0.38715672,0.6360737,-0.45616361,-1.455081,-0.21395555
381,3.8099999999999627,0.6815032,-0.9166998,0.7058948,0.10476339,-0.72356987,0.11071932
382,3.8199999999999625,0.61552376,-1.0242062,0.4434405,-0.38148534,-0.2134974,0.4775439
383,3.8299999999999623,0.61552376,-1.0242062,0.4434405,-0.38148534,-0.2134974,0.4775439
384,3.839999999999962,0.6168043,-1.2114122,1.0231694,-3.1583261,-0.23732115,1.9159788
385,3.849999999999962,0.91383386,-1.1016496,1.6793053,-3.8379135,-0.37980548,2.489734
386,3.8599999999999617,1.361116,-0.8707215,2.15165,-3.9267945,-0.4801401,2.7207937
387,3.8699999999999615,1.6162529,-0.6599165,2.3528812,-3.7033706,-0.61590487,2.3973405
388,3.8799999999999613,1.8475468,-0.36428955,2.444655,-3.6329684,-0.61010164,1.8729129
389,3.889999999999961,1.9720662,-0.103359684,2.4168484,-3.6549594,-0.30634892,1.0690142
390,3.899999999999961,1.946821,0.19153556,2.3281846,-3.647629,0.12843442,-0.3323107
391,3.9099999999999606,1.6862569,0.33495858,2.26873,-3.5576792,0.56184334,-1.3929255
392,3.9199999999999604,1.3469689,0.5699113,2.1820786,-3.227201,0.86635965,-2.3770294
393,3.92999999999996,0.8593794,0.7890704,2.0160933,-3.227201,0.86635965,-2.3770294
394,3.93999999999996,0.5657647,0.8329144,1.9565775,-2.6251934,0.9950995,-2.8287642
395,3.9499999999999598,0.43478146,0.68674743,2.078414,-1.208597,1.0377073,-2.3600779
396,3.9599999999999596,0.3661799,0.2470876,2.0348747,0.047494773,0.59880066,-1.6664404
397,3.9699999999999593,0.5069198,-0.54661727,1.0889659,1.2421945,0.009773844,-0.73899424
398,3.979999999999959,0.5069198,-0.54661727,1.0889659,1.8608483,-0.7857254,0.88789266
399,3.989999999999959,1.1079304,-0.746263,0.31337196,1.5128077,-0.9998337,1.199892
400,3.9999999999999587,1.1079304,-0.746263,0.31337196,1.5128077,-0.9998337,1.199892
401,4.009999999999959,1.4231929,-0.6141822,0.29928577,0.86574876,-0.8686504,1.0789407
402,4.019999999999959,1.6358881,-0.25983223,0.50856626,-0.020922136,-0.3791946,-0.008857546
403,4.0299999999999585,1.5959468,-0.1516552,0.73931146,-0.24266621,-0.08032878,-0.8164214
404,4.039999999999958,1.45167,-0.17098558,0.8984061,-0.1470658,0.15745051,-1.3355042
405,4.049999999999958,1.3895323,-0.1972676,0.89175934,-0.1470658,0.15745051,-1.3355042
406,4.059999999999958,1.3920325,-0.2800773,0.7354088,0.21975878,0.043829583,-1.2802209
407,4.069999999999958,1.3920325,-0.2800773,0.7354088,0.21975878,0.043829583,-1.2802209
408,4.079999999999957,1.3920325,-0.2800773,0.7354088,0.18325958,-0.2657264,-0.9231701
409,4.089999999999957,1.3328216,-0.21989086,0.62735367,0.051923547,-0.31031954,-0.80756384
410,4.099999999999957,1.3147109,-0.02774552,0.8606599,0.053603426,-0.26419923,-0.95447695
411,4.109999999999957,1.3147109,-0.02774552,0.8606599,0.053603426,-0.26419923,-0.95447695
412,4.119999999999957,1.1786664,-0.050429773,0.88151485,0.18096884,-0.22449298,-1.0102184
413,4.129999999999956,1.0823191,-0.07976075,0.73571366,0.70570207,-0.45142943,-0.77350813
414,4.139999999999956,1.045244,-0.115799434,0.51112735,0.7997753,-0.65668017,-0.4821254
415,4.149999999999956,1.0757945,-0.10451829,0.47033232,0.82253003,-0.81596327,-0.17547104
416,4.159999999999956,1.1472011,-0.081346214,0.43276918,0.7495316,-0.9137017,0.06307184
417,4.1699999999999555,1.2100706,-0.06360127,0.3766683,0.22556199,-0.5311473,0.14874569
418,4.179999999999955,1.2309865,-0.062442668,0.3802661,0.22556199,-0.5311473,0.14874569
419,4.189999999999955,1.2848921,-0.035124,0.5817413,-0.26740626,0.16814066,-0.25121832
420,4.199999999999955,1.2848921,-0.035124,0.5817413,-0.29718593,0.18234327,-0.42638394
421,4.209999999999955,1.2692204,0.054393414,0.87724626,0.12644911,-0.050701816,-0.51083606
422,4.2199999999999545,1.19757,0.0661624,0.7252862,0.6420194,-0.3061962,-0.54809886
423,4.229999999999954,1.1175042,0.011220166,0.6208899,0.90667677,-0.46944994,-0.5714644
424,4.239999999999954,1.0132909,-0.045734376,0.54844666,0.9477574,-0.5448918,-0.5758932
425,4.249999999999954,0.9552996,-0.07085779,0.56326455,0.8739954,-0.5148067,-0.5739079
426,4.259999999999954,0.86992884,-0.07817529,0.5741799,0.68401635,0.0027488936,-0.59437186
427,4.269999999999953,0.8323047,-0.0834195,0.5339336,0.68401635,0.0027488936,-0.59437186
428,4.279999999999953,0.77425253,-0.08604161,0.4417331,0.5047274,0.43600506,-0.6817256
429,4.289999999999953,0.75272685,-0.085004956,0.49759,0.3199407,0.62995476,-0.7498371
430,4.299999999999953,0.7217494,-0.018781584,0.5353971,0.24358252,0.49663344,-0.7093673
431,4.3099999999999525,0.73144513,-0.030550564,0.497651,0.4541783,-0.04352415,-0.41829
432,4.319999999999952,0.7340672,-0.02786748,0.4279518,0.6966918,-0.54702985,-0.17852537
433,4.329999999999952,0.749434,-0.06915038,0.2775772,0.8232936,-1.2644911,0.26313022
434,4.339999999999952,0.749434,-0.06915038,0.2775772,0.6204864,-1.3924674,0.3529274
435,4.349999999999952,0.73528683,-0.052381106,0.37270468,0.3930918,-1.057255,0.25961772
436,4.3599999999999515,0.71528566,0.013781292,0.3828882,0.29031372,-0.4173737,0.031154128
437,4.369999999999951,0.6748565,0.014513042,0.22995245,0.17241672,0.3173445,-0.268628
438,4.379999999999951,0.64619625,-0.03225798,0.14598413,-0.19333886,1.181108,-0.6256787
439,4.389999999999951,0.62686586,-0.005793021,0.21562232,-0.19333886,1.181108,-0.6256787
440,4.399999999999951,0.6327808,0.040429186,0.32623854,-0.36560285,0.82512623,-0.45158213
441,4.40999999999995,0.71430993,0.03164819,0.31837222,0.0065668016,0.07376198,-0.07544186
442,4.41999999999995,0.772728,0.0336605,0.22684251,0.0065668016,0.07376198,-0.07544186
443,4.42999999999995,0.77425253,0.038355898,0.17074168,0.56214875,-1.397507,0.4822781
444,4.43999999999995,0.7634592,0.023720896,0.18446198,0.56214875,-1.397507,0.4822781
445,4.4499999999999496,0.7503486,0.035124,0.2733696,0.40759984,-1.5239561,0.6959282
446,4.459999999999949,0.74187255,0.06866254,0.27093044,0.29718593,-1.1073459,0.5833763
447,4.469999999999949,0.7535805,0.07341892,0.2154394,0.16554448,-0.47525316,0.26557365
448,4.479999999999949,0.72985965,0.07036996,0.20598765,0.057421334,-0.025961773,-0.05390886
449,4.489999999999949,0.7211396,0.12604393,0.26660094,-0.05024367,0.31963524,-0.31413746
450,4.4999999999999485,0.7211396,0.12604393,0.26660094,0.009468411,0.25152376,-0.37583485
451,4.509999999999948,0.75644654,0.11842154,0.2470876,0.2919936,-0.040775254,-0.3275765
452,4.519999999999948,0.810718,0.10653061,0.08939546,0.55573463,-0.47723848,-0.24831672
453,4.529999999999948,0.78492385,0.07000408,-0.14336202,0.57528234,-0.841925,-0.18295415
454,4.539999999999948,0.78492385,0.07000408,-0.14336202,0.57528234,-0.841925,-0.18295415
455,4.549999999999947,0.78492385,0.07000408,-0.14336202,0.57528234,-0.841925,-0.18295415
456,4.559999999999947,0.6097917,0.09201756,0.2040363,0.10262536,-0.77732605,0.114689946
457,4.569999999999947,0.6780274,0.08433419,0.10927467,0.15668693,-0.26923886,0.050549097
458,4.579999999999947,0.7637641,0.1012864,0.05927175,0.060170226,-0.034513887,-0.07086037
459,4.589999999999947,0.77291095,0.16281438,0.0834195,-0.026419923,-0.06688975,-0.111635625
460,4.599999999999946,0.8778561,0.1548261,0.1220803,0.16355917,-0.23900102,-0.11713341
461,4.609999999999946,0.94475025,0.17787623,0.045002624,0.16355917,-0.23900102,-0.11713341
462,4.619999999999946,0.9351155,0.17110755,-0.058296088,0.54076844,-0.7348709,-0.2938262
463,4.629999999999946,0.85120827,0.13677627,-0.12890996,0.4783075,-0.96745783,-0.40332377
464,4.6399999999999455,0.7299816,0.10403045,-0.075126335,0.31978795,-1.0367911,-0.42241332
465,4.649999999999945,0.53125054,0.06579652,0.082199916,0.19058995,-0.89827734,-0.29901853
466,4.659999999999945,0.42295152,0.031770147,0.16098501,0.22525656,-0.61575216,-0.10048734
467,4.669999999999945,0.42295152,0.031770147,0.16098501,0.29917124,-0.23289238,0.15653422
468,4.679999999999945,0.5179571,0.077260606,0.038051,0.2782491,-0.049632803,0.3538437
469,4.689999999999944,0.6363786,0.10622571,0.020854875,0.3061962,0.037415497,0.46853364
470,4.699999999999944,0.7382748,0.10781116,0.017013188,0.41401392,0.044135015,0.4558582
471,4.709999999999944,0.8979183,0.1917185,-0.10915271,0.572228,-0.028252518,0.30909783
472,4.719999999999944,0.8979183,0.1917185,-0.10915271,0.66630125,-0.14156802,0.08750644
473,4.729999999999944,0.80962044,0.15226498,-0.07396773,0.6412558,-0.45463645,-0.2454151
474,4.739999999999943,0.80962044,0.15226498,-0.07396773,0.6412558,-0.45463645,-0.2454151
475,4.749999999999943,0.5907662,0.05189327,0.037136313,0.84620106,-0.25305092,-0.14095716
476,4.759999999999943,0.57570434,0.006341833,0.009329813,0.98731095,-0.03481932,-0.06505715
477,4.769999999999943,0.59741294,-0.026343001,-0.049027253,1.0754282,0.2405282,0.020005837
478,4.7799999999999425,0.7127855,-0.03561183,-0.12476338,1.1114693,0.64476824,0.033292156
479,4.789999999999942,0.7127855,-0.03561183,-0.12476338,1.1114693,0.64476824,0.033292156
480,4.799999999999942,0.83181685,-0.012378771,-0.25007555,0.9980011,1.0161743,-0.11209377
481,4.809999999999942,0.8391343,0.072443254,-0.25251475,0.5555819,1.1262828,-0.44333544
482,4.819999999999942,0.7175419,0.08585867,-0.091102876,0.5749769,0.8188649,-0.40393466
483,4.8299999999999415,0.66839266,0.0910419,-0.048783336,0.6507242,0.61819565,-0.3231477
484,4.839999999999941,0.6085111,0.07896802,-0.054149497,0.6507242,0.61819565,-0.3231477
485,4.849999999999941,0.6306466,0.06219875,-0.1604362,1.144456,-0.28725937,0.20234911
486,4.859999999999941,0.67253923,0.06683317,-0.30867654,1.0186177,-0.3100141,0.19685133
487,4.869999999999941,0.6943088,0.064942814,-0.3401418,0.73548174,-0.18753563,0.06246097
488,4.87999999999994,0.66607547,0.070735835,-0.298554,0.50335294,0.027794369,-0.10293079
489,4.88999999999994,0.6182678,0.10610375,-0.2697718,0.4036292,0.12370021,-0.15012014
490,4.89999999999994,0.58905876,0.16202165,-0.25806385,0.38072178,0.2322815,-0.15561792
491,4.90999999999994,0.6132675,0.20537783,-0.31245726,0.47601673,0.37812558,-0.1067487
492,4.9199999999999395,0.6543065,0.2122075,-0.37447307,0.5867361,0.5045747,-0.12736541
493,4.929999999999939,0.66363627,0.23348923,-0.44728217,0.67164636,0.64904433,-0.17150041
494,4.939999999999939,0.63211006,0.22952558,-0.5600937,0.7664832,0.6169739,-0.0018325958
495,4.949999999999939,0.67339295,0.16208263,-0.70211416,0.7664832,0.6169739,-0.0018325958
496,4.959999999999939,0.67339295,0.16208263,-0.70211416,0.74128497,0.59986967,0.13744467
497,4.9699999999999385,0.7195542,0.15476513,-0.6328418,0.57742035,0.8199339,0.21991149
498,4.979999999999938,0.7195542,0.15476513,-0.6328418,0.57742035,0.8199339,0.21991149
499,4.989999999999938,0.7825456,0.23312336,-0.3442274,0.9940305,1.5441146,0.2930626
500,4.999999999999938,0.7825456,0.23312336,-0.3442274,0.9940305,1.5441146,0.2930626
501,5.009999999999938,1.2042166,0.18123008,-0.61271864,1.4178182,2.232865,0.15012014
502,5.019999999999937,1.3462372,0.19598705,-0.84297603,1.3703234,3.0234776,-0.43982297
503,5.029999999999937,1.3462372,0.19598705,-0.84297603,1.3703234,3.0234776,-0.43982297
504,5.039999999999937,1.2612932,0.0831146,-0.9096872,0.22861631,3.2856915,-1.38025
505,5.049999999999937,0.9934116,0.041038983,-0.75589776,-0.13607024,3.0051515,-1.2933544
506,5.0599999999999365,0.7151027,0.053600688,-0.41819513,-0.23411411,2.2061398,-0.6569856
507,5.069999999999936,0.7800455,0.11360419,-0.22043969,0.0025961774,1.4020884,0.14049901
508,5.079999999999936,0.8863322,0.20165811,-0.17366867,0.15775596,1.0105238,0.4868596
509,5.089999999999936,1.1135406,0.32367742,-0.10811607,0.26526824,0.70157874,0.731053
510,5.099999999999936,1.3847759,0.29105356,-0.0070126047,0.21838433,0.960891,0.47403142
511,5.1099999999999355,1.5385044,0.28544348,0.073540874,0.13622294,1.318858,0.20662516
512,5.119999999999935,1.498502,0.2315379,0.21019518,-0.049938235,1.8880317,-0.32177326
513,5.129999999999935,1.498502,0.2315379,0.21019518,0.116675265,2.3157902,-0.66507953
514,5.139999999999935,1.472281,0.15561883,0.2932488,0.116675265,2.3157902,-0.66507953
515,5.149999999999935,1.4538654,0.11494574,0.11177482,0.41584653,2.1945333,-0.559858
516,5.159999999999934,1.3835564,0.036221627,-0.12622687,0.22999077,1.297936,-0.27473664
517,5.169999999999934,1.346725,0.049210187,-0.1062867,-0.11362094,0.7673995,-0.124311075
518,5.179999999999934,1.2893435,0.051283482,0.02420873,-0.34101552,0.33399057,-0.0346666
519,5.189999999999934,1.2893435,0.051283482,0.02420873,-0.47800204,0.056352317,0.0842994
520,5.199999999999934,1.1864717,0.0060369377,0.25031948,-0.5720753,-0.094225965,0.22388211
521,5.209999999999933,1.211839,0.032623854,0.28580934,-0.573297,-0.10522154,0.23609942
522,5.219999999999933,1.2953194,0.08805392,0.38831535,-0.4250095,-0.13622294,0.052381694
523,5.229999999999933,1.3102595,0.041221917,0.48405263,-0.08032878,0.16814066,-0.19501872
524,5.239999999999933,1.1653119,-0.06451596,0.31434762,0.12996158,0.5317582,-0.40683624
525,5.2499999999999325,1.0309747,-0.15232596,0.10061563,0.05009095,0.8324566,-0.5516113
526,5.259999999999932,0.8970645,-0.21922012,-0.07561417,-0.4569272,0.65179324,-0.37140608
527,5.269999999999932,0.7203469,-0.2242204,0.012134855,-0.9584476,0.3849978,-0.093767814
528,5.279999999999932,0.6372323,-0.20860973,0.17385161,-1.2848023,0.031001411,0.44150287
529,5.289999999999932,0.7297377,-0.107628234,0.32264078,-1.2907583,-0.30863968,1.0716103
530,5.299999999999931,0.87919766,0.028233355,0.30739596,-1.1039863,-0.4289801,1.3264939
531,5.309999999999931,1.194338,0.201963,0.22751327,-0.75655663,-0.24770586,1.1788172
532,5.319999999999931,1.194338,0.201963,0.22751327,-0.58368176,-0.04444045,0.89888823
533,5.329999999999931,1.2633665,0.1934869,0.20153615,-0.31474832,0.5103779,0.25961772
534,5.339999999999931,0.98865527,0.009817646,-0.007561417,-0.18967366,1.2220359,-0.26358834
535,5.34999999999993,0.68674743,-0.15342359,-0.1835473,-0.24862215,1.9616411,-0.783282
536,5.35999999999993,0.68674743,-0.15342359,-0.1835473,-1.128879,2.85213,-0.7826711
537,5.36999999999993,0.524116,-0.1381178,-0.26330805,-1.6659822,2.5273023,-0.26358834
538,5.37999999999993,0.5207011,0.046710044,0.07695571,-1.6659822,2.5273023,-0.26358834
539,5.3899999999999295,0.73595756,0.1510454,0.12756842,-1.3069462,1.3327552,0.8593347
540,5.399999999999929,1.001156,0.26550332,0.059088815,-0.9631818,0.73471814,1.0706941
541,5.409999999999929,1.14464,0.2695889,-0.011159187,-0.6814202,0.08460484,1.0836749
542,5.419999999999929,1.2254373,0.2289158,-0.0746385,-0.5571091,-0.37858373,0.9663888
543,5.429999999999929,1.2254373,0.2289158,-0.0746385,-0.5571091,-0.37858373,0.9663888
544,5.4399999999999284,1.1484207,0.023842854,-0.04853942,-0.3483459,-1.1001683,0.7725918
545,5.449999999999928,0.9765814,-0.062076796,-0.072565205,-0.3016147,-1.2594514,0.9460775
546,5.459999999999928,0.9959117,-0.104701236,-0.17763232,-0.3016147,-1.2594514,0.9460775
547,5.469999999999928,1.1230533,-0.15208204,-0.29221216,-0.42332962,-1.7256943,1.4230106
548,5.479999999999928,1.3040395,-0.23141594,-0.30599347,-0.6577492,-1.920255,1.3330606
549,5.489999999999927,1.3623356,-0.26178357,-0.1700709,-0.81153446,-2.0239494,1.1685852
550,5.499999999999927,1.4705126,-0.2833702,0.047197875,-0.7684685,-2.1340578,0.8707884
551,5.509999999999927,1.4705126,-0.2833702,0.047197875,-0.7684685,-2.1340578,0.8707884
552,5.519999999999927,1.5283818,-0.30904242,0.12604393,-0.61559945,-2.2346978,0.6385069
553,5.5299999999999265,1.5323455,-0.5388119,0.35355723,0.09315695,-2.7218628,0.09208794
554,5.539999999999926,1.0978689,-0.8590135,0.4145364,0.035277467,-2.2640193,0.38835758
555,5.549999999999926,0.98597217,-0.9121874,0.32684833,-0.23335053,-1.8075503,0.6759224
556,5.559999999999926,0.97938645,-1.0719528,0.35020337,-0.9958631,-0.914618,1.0748174
557,5.569999999999926,1.1644582,-1.252878,0.57357,-1.8371773,-0.2921463,1.2724323
558,5.5799999999999255,1.5121005,-1.2217176,1.2374502,-2.9996538,-0.56688297,1.21608
559,5.589999999999925,1.5121005,-1.2217176,1.2374502,-3.441004,-0.86544335,1.0297661
560,5.599999999999925,1.9523091,-0.9134679,2.136649,-4.0695844,-0.80664754,0.5717699
561,5.609999999999925,1.9523091,-0.9134679,2.136649,-4.699386,-0.59742624,-0.51083606
562,5.619999999999925,2.6464348,-0.34575188,2.7350378,-5.0944633,-0.26282477,-1.8813123
563,5.629999999999924,2.529355,0.010732334,2.725586,-5.365382,0.24572055,-4.154495
564,5.639999999999924,1.9565775,0.15135029,2.6966817,-5.2354207,0.86666507,-6.44753
565,5.649999999999924,1.2428774,0.2684303,2.73394,-4.808426,1.2666291,-7.7004147
566,5.659999999999924,0.3936815,0.49801686,2.7030845,-4.022853,1.4553864,-8.004625
567,5.6699999999999235,-0.3091034,0.65692854,2.5503316,-2.6138923,1.4219415,-6.977761
568,5.679999999999923,-0.930603,0.49344343,2.602164,-0.9831876,0.8546005,-4.8375945
569,5.689999999999923,-1.0557934,0.2602591,2.637898,0.08445212,0.3914119,-3.2948544
570,5.699999999999923,-0.9995096,-0.1703758,2.2811697,1.8419114,-0.38545597,-0.57696223
571,5.709999999999923,-0.5292992,-0.49838275,1.5526515,3.2563698,-1.1765264,2.1817052
572,5.7199999999999225,0.13665432,-0.6642461,0.8454762,3.5343137,-1.5025758,3.2662964
573,5.729999999999922,0.6406471,-0.6755272,0.45447776,3.306919,-1.5424347,3.6650388
574,5.739999999999922,1.3357487,-0.5377143,0.16885132,1.7841847,-0.86101454,2.9846876
575,5.749999999999922,1.5581397,-0.4855771,0.327824,0.9775371,-0.45952338,2.3600779
576,5.759999999999922,1.6879033,-0.5010658,0.42093918,0.9775371,-0.45952338,2.3600779
577,5.769999999999921,1.7451628,-0.4616733,0.42685416,0.3315471,-0.10445796,0.9440922
578,5.779999999999921,1.7451628,-0.4616733,0.42685416,0.3315471,-0.10445796,0.9440922
579,5.789999999999921,1.5920441,-0.2570272,0.55484945,0.1572978,-0.22250767,0.31948254
580,5.799999999999921,1.5920441,-0.2570272,0.55484945,-0.009315695,-0.23426682,-0.30909783
581,5.809999999999921,1.2832457,-0.11732392,0.6460743,-0.19226983,-0.09254608,-1.0387764
582,5.81999999999992,1.1376274,-0.048234522,0.7397383,-0.29352075,0.09086621,-1.1441506
583,5.82999999999992,1.0892099,-0.023476979,0.7944976,-0.300393,0.19700404,-1.1336132
584,5.83999999999992,1.0454268,-0.06786981,0.8584647,-0.15454891,0.25671613,-1.0277808
585,5.84999999999992,1.0320115,-0.10384752,0.7603492,0.11071932,0.15012014,-0.79198676
586,5.8599999999999195,1.0439024,-0.10500612,0.5407023,0.26893342,-0.16432275,-0.42623124
587,5.869999999999919,1.0570738,-0.089700356,0.4349034,0.25977045,-0.41309762,-0.20143281
588,5.879999999999919,1.0636597,-0.055003207,0.4379524,0.14828753,-0.79168135,0.0795652
589,5.889999999999919,1.0498173,-0.0013415418,0.6252194,0.043982297,-0.86177814,0.21380283
590,5.899999999999919,1.0504271,0.035733793,0.7880338,0.033750303,-0.6774496,0.23487769
591,5.909999999999918,1.1039668,0.06006448,0.8296825,0.14889841,-0.07880162,0.102319926
592,5.919999999999918,1.1595799,0.022257395,0.796144,0.22724187,0.35842517,-0.050701816
593,5.929999999999918,1.2100706,0.041953668,0.75888574,0.26068676,0.56581396,-0.17241672
594,5.939999999999918,1.2566587,0.012195834,0.4999682,0.33750305,0.49663344,-0.22678372
595,5.949999999999918,1.2566587,0.012195834,0.4999682,0.37400225,0.36880988,-0.24312437
596,5.959999999999917,1.2136683,-0.014208145,0.42282957,0.31245756,0.10476339,-0.24236079
597,5.969999999999917,1.0598788,-0.06561358,0.48234522,0.12736541,-0.06856962,-0.2098322
598,5.979999999999917,1.0598788,-0.06561358,0.48234522,0.12736541,-0.06856962,-0.2098322
599,5.989999999999917,0.97914255,0.024452647,0.7572393,0.12736541,-0.06856962,-0.2098322
600,5.9999999999999165,0.980484,0.043783043,0.70534605,0.40408736,-0.08384126,-0.16523905
601,6.009999999999916,0.980484,0.043783043,0.70534605,0.6397286,-0.08124508,-0.2603813
602,6.019999999999916,0.99627763,0.010915271,0.45886827,0.603993,-0.14630222,-0.33490688
603,6.029999999999916,0.9384084,-0.039087646,0.025672229,0.28313604,-0.29352075,-0.3633121
604,6.039999999999916,0.8745022,-0.041282896,0.08451713,0.28313604,-0.29352075,-0.3633121
605,6.0499999999999154,0.8090716,-0.019879209,0.33117786,-0.46700647,-0.6386596,-0.26145032
606,6.059999999999915,0.74205554,-0.011951917,0.5014317,-0.527024,-0.55833083,-0.16661349
607,6.069999999999915,0.73175,0.015732625,0.64034224,-0.44043383,-0.40026945,-0.09208794
608,6.079999999999915,0.75882477,0.08274873,0.6685756,-0.29886582,-0.37125334,-0.035124753
609,6.089999999999915,0.83157295,0.12744646,0.63363457,-0.03390302,-0.46838093,0.015882496
610,6.099999999999914,0.91291916,0.16915621,0.56228894,0.31123585,-0.7200574,-0.022449298
611,6.109999999999914,0.9473114,0.18043736,0.38075393,0.44348818,-0.8437576,-0.0627664
612,6.119999999999914,0.9473114,0.18043736,0.38075393,0.44348818,-0.8437576,-0.0627664
613,6.129999999999914,0.79827833,0.07817529,0.37953433,0.6957755,-1.4714217,-0.47571132
614,6.1399999999999135,0.69241846,0.010915271,0.4299641,0.6093381,-1.3793337,-0.48517972
615,6.149999999999913,0.643879,-0.03195308,0.38374192,0.52687126,-1.0441214,-0.4381431
616,6.159999999999913,0.6248535,-0.06658925,0.25824678,0.34193182,-0.75579304,-0.3915646
617,6.169999999999913,0.61082834,-0.012073875,0.26379588,0.03634648,-0.60139686,-0.2828306
618,6.179999999999913,0.61832875,0.046283185,0.35715497,-0.041233405,-0.6249151,-0.18417588
619,6.1899999999999125,0.67107576,0.10543298,0.45734373,-0.041233405,-0.6249151,-0.18417588
620,6.199999999999912,0.729006,0.1074453,0.3682532,0.58383447,-0.8573494,0.04337143
621,6.209999999999912,0.76138586,0.105615914,0.19854817,0.58383447,-0.8573494,0.04337143
622,6.219999999999912,0.76565444,0.09140777,0.16757075,0.6078109,-1.127199,-0.13271047
623,6.229999999999912,0.75229996,0.08604161,0.19281614,0.581391,-1.1763737,-0.15714508
624,6.239999999999911,0.7197371,0.04610025,0.25830775,0.6291912,-1.1345295,-0.21090123
625,6.249999999999911,0.684857,0.08055348,0.14098383,0.6957755,-0.7901542,-0.31337386
626,6.259999999999911,0.684857,0.08055348,0.14098383,0.6957755,-0.7901542,-0.31337386
627,6.269999999999911,0.684857,0.08055348,0.14098383,0.6957755,-0.7901542,-0.31337386
628,6.2799999999999105,0.61082834,0.04451479,-0.019086478,0.43936482,0.24663684,-0.57009
629,6.28999999999991,0.58753425,0.1516552,0.0042075627,0.4250095,0.37827832,-0.59513545
630,6.29999999999991,0.64528155,0.1387886,-0.009634708,0.591623,0.38545597,-0.59040123
631,6.30999999999991,0.6661974,0.12890996,-0.100432694,0.74021596,0.1873829,-0.59971696
632,6.31999999999991,0.673271,0.102140106,-0.105920814,0.7530441,-0.28955013,-0.49373183
633,6.3299999999999095,0.6415009,0.08915155,-0.13823977,0.7496844,-0.5739079,-0.38728857
634,6.339999999999909,0.5871074,0.06860156,-0.19696271,0.7496844,-0.5739079,-0.38728857
635,6.349999999999909,0.54051936,0.061467,-0.21293926,0.59483004,-0.79275036,-0.03390302
636,6.359999999999909,0.5082004,0.07543123,-0.20812188,0.4268421,-0.77763146,0.20234911
637,6.369999999999909,0.52942115,0.13738607,-0.07122366,0.4268421,-0.77763146,0.20234911
638,6.379999999999908,0.5573496,0.19488941,0.022867188,0.34681875,-0.59712076,0.43478334
639,6.389999999999908,0.62960994,0.2037314,0.06006448,0.54901516,-0.44073927,0.42317688
640,6.399999999999908,0.7301646,0.1934869,0.0012195833,0.8362745,-0.23411411,0.26389378
641,6.409999999999908,0.84193933,0.15324064,-0.13848369,0.95417154,-0.09468412,0.027947085
642,6.419999999999908,0.89322287,0.12110463,-0.22915971,0.8559749,-0.0053450707,-0.26175576
643,6.429999999999907,0.83504874,0.11183579,-0.25788093,0.69134676,0.045814894,-0.4465425
644,6.439999999999907,0.7535196,0.10134738,-0.18988912,0.56306505,0.07040222,-0.5392413
645,6.449999999999907,0.6393056,0.115006715,-0.128788,0.58459806,0.110872045,-0.5025894
646,6.459999999999907,0.6393056,0.115006715,-0.128788,0.58459806,0.110872045,-0.5025894
647,6.4699999999999065,0.6393056,0.115006715,-0.128788,0.58459806,0.110872045,-0.5025894
648,6.479999999999906,0.561923,0.11720196,-0.19635291,0.77931136,0.3631594,0.00290161
649,6.489999999999906,0.561923,0.11720196,-0.19635291,0.77931136,0.3631594,0.00290161
650,6.499999999999906,0.7021751,0.102688916,-0.27471116,0.8237518,0.4184427,0.093462385
651,6.509999999999906,0.8159013,0.1837912,-0.4378304,0.68218374,0.4625777,-0.050701816
652,6.519999999999905,0.78699714,0.19501138,-0.37685126,0.34788775,0.4466952,-0.26068676
653,6.529999999999905,0.7428482,0.20586567,-0.25849068,0.29443705,0.399964,-0.28527406
654,6.539999999999905,0.7428482,0.20586567,-0.25849068,0.29443705,0.399964,-0.28527406
655,6.549999999999905,0.6831496,0.22092752,-0.14622805,0.69806623,0.19272798,-0.12415836
656,6.559999999999905,0.6844302,0.17744938,-0.19488941,0.69806623,0.19272798,-0.12415836
657,6.569999999999904,0.65394056,0.15317966,-0.25391725,1.0305296,0.22678372,-0.03176499
658,6.579999999999904,0.66430706,0.15885073,-0.3240433,1.012051,0.3585779,0.0154243475
659,6.589999999999904,0.7625445,0.10799411,-0.41941473,0.862389,0.6933321,0.043676864
660,6.599999999999904,0.81120586,0.105372004,-0.40520656,0.68111473,0.8933904,-0.029168816
661,6.6099999999999035,0.8786488,0.1838522,-0.37532678,0.5899431,0.9978484,-0.0571159
662,6.619999999999903,0.9614585,0.20531686,-0.3795953,0.5925393,1.0160216,-0.123242065
663,6.629999999999903,1.0090222,0.2280621,-0.3740462,0.66981375,0.9418015,-0.23747386
664,6.639999999999903,1.0255476,0.27245492,-0.39587677,0.923781,0.7892379,-0.5203045
665,6.649999999999903,1.0435365,0.26318607,-0.4364889,0.923781,0.7892379,-0.5203045
666,6.659999999999902,1.0271941,0.23318435,-0.48893097,0.95371336,0.8416196,-0.6965391
667,6.669999999999902,0.92688334,0.21824445,-0.54143405,0.8921687,0.9691377,-0.8136725
668,6.679999999999902,0.7036386,0.14488651,-0.49356538,0.77182823,1.1979067,-0.8349001
669,6.689999999999902,0.7036386,0.14488651,-0.49356538,0.6794349,1.3671165,-0.75670934
670,6.699999999999902,0.55649585,0.19391376,-0.2821506,0.59803706,1.4717271,-0.59849524
671,6.709999999999901,0.66820973,0.21159773,-0.30221277,0.59391373,1.7073684,0.21762075
672,6.719999999999901,0.66820973,0.21159773,-0.30221277,0.59391373,1.7073684,0.21762075
673,6.729999999999901,1.1225655,0.36483836,-0.49984625,0.3724751,1.8356501,0.41508293
674,6.739999999999901,1.3324558,0.43331796,-0.52198166,0.17058411,1.9318613,0.23854288
675,6.7499999999999005,1.3819709,0.50496846,-0.44728217,0.037873644,2.0766363,-0.28893927
676,6.7599999999999,1.2891606,0.51063955,-0.32892162,0.20189096,2.2343924,-0.69226307
677,6.7699999999999,1.2891606,0.51063955,-0.32892162,0.46715918,2.3272438,-0.91736686
678,6.7799999999999,0.9872528,0.3231896,-0.29843205,0.6983717,2.44453,-1.0068586
679,6.7899999999999,0.79053396,0.14586218,-0.3635578,0.7530441,2.5781567,-0.9117164
680,6.7999999999998995,0.7149198,0.009695687,-0.418683,0.56581396,2.6774223,-0.6441574
681,6.809999999999899,0.74571425,-0.058418043,-0.44039157,0.12064589,2.7046058,-0.19074267
682,6.819999999999899,0.86992884,-0.05079565,-0.43246427,-0.33948836,2.5350907,0.16554448
683,6.829999999999899,0.98969185,0.026830835,-0.31623796,-0.9062186,1.9610301,0.61819565
684,6.839999999999899,1.1535429,0.14086188,-0.048905294,-1.1239921,1.3242031,0.98272943
685,6.849999999999898,1.3097105,0.21208555,0.13793488,-0.9931142,0.61651576,1.3217597
686,6.859999999999898,1.554298,0.35483778,0.25995418,-0.7069238,0.09605856,1.4419475
687,6.869999999999898,1.8477907,0.48862606,0.22470824,-0.30482176,-0.27030787,1.2550226
688,6.879999999999898,1.9945066,0.5346044,0.1451914,0.1282817,-0.18692477,-0.2191479
689,6.8899999999998975,1.9623706,0.48576006,0.021708583,0.09941832,-0.046883907,-1.1142182
690,6.899999999999897,1.4480113,0.21702486,0.049576063,0.09941832,-0.046883907,-1.1142182
691,6.909999999999897,1.4480113,0.21702486,0.049576063,0.014202617,0.06414085,-1.5653422
692,6.919999999999897,1.1312245,0.029940773,0.059881546,-0.096516706,-0.04062254,-1.7650951
693,6.929999999999897,0.9210293,-0.06713806,0.12573905,-0.21746802,-0.39752057,-1.5661057
694,6.9399999999998965,0.94194525,0.048600398,0.16354613,-0.34880406,-0.7892379,-1.0123564
695,6.949999999999896,0.94194525,0.048600398,0.16354613,-0.34880406,-0.7892379,-1.0123564
696,6.959999999999896,1.0825021,0.115555525,0.10464026,-0.28817567,-0.5279403,-0.39278635
697,6.969999999999896,1.0353043,0.10354263,-0.044270877,-0.24190263,-0.06856962,-0.33567044
698,6.979999999999896,1.0353043,0.10354263,-0.044270877,-0.24190263,-0.06856962,-0.33567044
699,6.989999999999895,0.99274087,0.054881252,-0.097749606,-0.4616614,0.572228,-0.25534168
700,6.999999999999895,0.8281581,-0.010427438,-0.22720838,-0.66920286,0.7101309,-0.1348485
701,7.009999999999895,0.72894496,-0.056161813,-0.17110755,-0.9272934,0.63697976,0.118202426
702,7.019999999999895,0.67564917,0.018476687,-0.04927117,-1.1381947,0.31047225,0.559858
703,7.0299999999998946,0.69766265,0.08915155,0.047990605,-1.1731668,0.01282817,0.8582657
704,7.039999999999894,0.80876666,0.20348747,0.2294646,-0.94714653,-0.5355761,1.2692252
705,7.049999999999894,0.93017626,0.27215004,0.28056514,-0.43661594,-1.0091494,1.515404
706,7.059999999999894,1.0559152,0.30081022,0.16787565,-0.032223143,-1.1922562,1.5028812
707,7.069999999999894,1.1662875,0.3257507,-0.018903542,0.236863,-1.1873693,1.1510228
708,7.0799999999998935,1.1851301,0.2626373,-0.11494574,0.24312437,-0.8524625,0.70921457
709,7.089999999999893,0.8120596,0.1422644,-0.31892106,-0.27137688,0.3304781,-0.20662516
710,7.099999999999893,0.6429643,0.10909174,-0.30221277,-0.5543602,0.94974273,-0.39202276
711,7.109999999999893,0.58411944,0.103359684,-0.3100181,-0.70173144,1.3637567,-0.44241914
712,7.119999999999893,0.58411944,0.103359684,-0.3100181,-0.7641924,1.5183055,-0.4335616
713,7.129999999999892,0.655648,0.17824212,-0.19616999,-0.84574294,1.5777122,-0.40378192
714,7.139999999999892,0.73053044,0.25836873,-0.1267147,-0.75762564,1.4390458,-0.4222606
715,7.149999999999892,0.78169197,0.29532212,-0.09890821,-0.5352707,0.978148,-0.50411654
716,7.159999999999892,0.78791183,0.2689791,-0.12043386,-0.18616119,0.5038111,-0.56398135
717,7.169999999999892,0.69266236,0.13061738,-0.21617115,-0.017562376,0.19868392,-0.49693888
718,7.179999999999891,0.50563926,0.025367333,-0.4604537,-0.20738874,-0.030085113,-0.00045814895
719,7.189999999999891,0.4238052,0.013293459,-0.55856913,-0.65102965,-0.28939742,0.5728389
720,7.199999999999891,0.47594243,0.047197875,-0.42831767,-1.180497,-0.7199047,1.3921618
721,7.209999999999891,0.65979457,0.066772185,-0.15287478,-1.3067935,-0.9639453,1.9501873
722,7.2199999999998905,1.0315237,0.16189969,0.20641449,-1.0567969,-1.0668762,2.2605069
723,7.22999999999989,1.3823367,0.18726702,0.30026144,-0.5508477,-1.0493138,2.0384574
724,7.23999999999989,1.5288087,0.04847844,0.21324414,-0.20570888,-1.0749701,1.4865406
725,7.24999999999989,1.46661,-0.1390325,0.059515666,-0.4541783,-1.5303701,0.795652
726,7.25999999999989,1.0066441,-0.5207011,0.31684774,-0.4541783,-1.5303701,0.795652
727,7.269999999999889,0.6369274,-0.6209509,0.6038767,-0.84696466,-1.6511687,0.8866709
728,7.279999999999889,0.61717016,-0.7144319,0.6832715,-1.0563387,-1.2562444,1.3816245
729,7.289999999999889,0.687845,-0.90139407,0.8968206,-1.5939001,-0.3315471,2.4362833
730,7.299999999999889,0.7940707,-1.0808557,1.2567806,-1.9378172,-0.23747386,3.0870075
731,7.309999999999889,0.8629162,-1.2171441,1.4740494,-1.9378172,-0.23747386,3.0870075
732,7.319999999999888,1.2801965,-1.2650129,1.847242,-2.4483478,-1.3481796,5.120425
733,7.329999999999888,2.0998178,-1.0331091,2.2263494,-2.5780041,-2.1716259,5.956089
734,7.339999999999888,3.0246887,-0.55277616,2.364711,-2.6207647,-2.467743,5.692806
735,7.349999999999888,3.0246887,-0.55277616,2.364711,-2.6207647,-2.467743,5.692806
736,7.3599999999998875,3.0246887,-0.55277616,2.364711,-3.1079297,-1.6504052,1.8584048
737,7.369999999999887,4.1299973,0.90730906,2.19214,-4.0333905,0.66706485,-3.9629884
738,7.379999999999887,3.1068275,0.65979457,2.3516006,-4.2389464,1.9567541,-7.344891
739,7.389999999999887,1.4092896,0.24916087,2.3313556,-3.3541083,2.7843237,-9.318444
740,7.399999999999887,-0.047258858,-0.07854117,2.0410948,-2.2664628,2.301893,-8.453306
741,7.4099999999998865,-0.71376115,-0.30129808,1.947004,-2.2664628,2.301893,-8.453306
742,7.419999999999886,-1.0376215,-0.5013097,1.5953369,-2.2664628,2.301893,-8.453306
743,7.429999999999886,-1.0376215,-0.5013097,1.5953369,-1.007775,1.3498595,-6.4840293
744,7.439999999999886,-0.08323657,-0.79718065,0.5320433,1.3642148,-1.4760032,1.6742289
745,7.449999999999886,-0.08323657,-0.79718065,0.5320433,1.2557862,-1.7209601,3.1377094
746,7.459999999999885,0.67631996,-0.7682766,0.64796466,1.0413725,-1.602605,4.0301833
747,7.469999999999885,1.4073992,-0.6191215,0.7630933,0.86529064,-1.0546589,3.8959458
748,7.479999999999885,1.4073992,-0.6191215,0.7630933,0.77931136,-0.63361996,3.382361
749,7.489999999999885,2.0885973,-0.4987486,0.5179571,0.63224554,-0.20280726,2.4205534
750,7.4999999999998845,2.2439113,-0.6039377,0.2537953,-0.048258353,-0.32803464,-0.011759156
751,7.509999999999884,2.052132,-0.5197864,0.27324766,-0.35445455,-0.53023106,-0.7860308
752,7.519999999999884,1.9205388,-0.47893035,0.34892282,-0.50808716,-0.5012149,-1.1675162
753,7.529999999999884,1.9205388,-0.47893035,0.34892282,-0.50808716,-0.5012149,-1.1675162
754,7.539999999999884,1.5039902,-0.29916382,0.5130787,-0.98456204,0.05207626,-2.0891593
755,7.5499999999998835,1.3587378,-0.22013481,0.66613644,-0.98456204,0.05207626,-2.0891593
756,7.559999999999883,1.1336638,-0.15177715,0.8140719,-0.9957104,0.5448918,-2.2930355
757,7.569999999999883,0.9934116,-0.13244675,0.8845638,-0.9957104,0.5448918,-2.2930355
758,7.579999999999883,0.89212525,-0.118055664,0.86633104,-0.33368513,0.061086524,-1.348485
759,7.589999999999883,0.8742583,-0.118055664,0.7487022,0.04642576,-0.4662429,-0.52549684
760,7.599999999999882,1.0094491,-0.11366516,0.6340004,0.19898935,-0.83291477,0.051923547
761,7.609999999999882,1.182691,-0.05335677,0.5716797,0.19898935,-1.1349876,0.4569272
762,7.619999999999882,1.2917827,-0.007927292,0.55417866,0.1255328,-1.1830933,0.49205196
763,7.629999999999882,1.3677016,0.029757833,0.5968641,0.04550946,-0.99464136,0.31703907
764,7.6399999999998816,1.4199,0.10464026,0.59838855,-0.021838432,-0.54076844,-0.2724459
765,7.649999999999881,1.3335534,0.11238461,0.5989374,-0.09208794,0.19349156,-1.1615603
766,7.659999999999881,1.2158027,0.10153031,0.6324759,-0.09208794,0.19349156,-1.1615603
767,7.669999999999881,1.085795,0.046527103,0.749251,0.21899518,0.43172902,-1.4555391
768,7.679999999999881,0.94048166,0.0035367915,0.8355975,0.21899518,0.43172902,-1.4555391
769,7.6899999999998805,0.8220601,-0.13958131,0.5228354,0.5222898,0.11682798,-1.1623238
770,7.69999999999988,0.81388897,-0.13738607,0.30635932,0.73991054,-0.3107777,-0.7359399
771,7.70999999999988,0.81388897,-0.13738607,0.30635932,0.714865,-0.7812967,-0.23869559
772,7.71999999999988,0.8502325,-0.090371124,0.3031884,0.21029036,-0.73273283,0.07727446
773,7.72999999999988,0.86437976,-0.03597771,0.36697263,0.21029036,-0.73273283,0.07727446
774,7.739999999999879,0.8829174,-0.0015244792,0.44276974,-0.22082779,0.2171626,-0.32085696
775,7.749999999999879,0.87724626,0.053844605,0.54192185,-0.377362,0.8002335,-0.7255552
776,7.759999999999879,0.8391343,0.0983594,0.67406374,-0.37766743,1.0280862,-0.9662361
777,7.769999999999879,0.8370001,0.10878683,0.7338233,-0.08781188,1.0224357,-1.0720685
778,7.779999999999879,0.8496228,0.101408355,0.6940649,0.18936823,0.79717916,-1.0509937
779,7.789999999999878,0.8319388,0.10573788,0.40929216,0.66950834,-0.058643065,-0.76923203
780,7.799999999999878,0.80943745,0.06561358,0.2409287,0.70478576,-0.4512767,-0.625526
781,7.809999999999878,0.7412628,0.019452354,0.11701902,0.5493206,-0.93523467,-0.43111816
782,7.819999999999878,0.6786981,-0.036160648,0.066894144,0.27015516,-1.0442741,-0.30772337
783,7.8299999999998775,0.5633255,-0.06561358,0.22104947,-0.12461651,-0.90010995,-0.2312125
784,7.839999999999877,0.5633255,-0.06561358,0.22104947,-0.6542367,-0.54092115,-0.21655174
785,7.849999999999877,0.54442203,0.011525063,0.60540116,-0.88789266,-0.2556471,-0.2191479
786,7.859999999999877,0.5789972,0.14988679,0.8272434,-0.63606346,-0.2087632,-0.1908954
787,7.869999999999877,0.7179687,0.19970676,0.7412628,0.107359566,-0.17730364,-0.21930063
788,7.879999999999876,0.8571841,0.19123067,0.2720281,0.83459467,-0.5551238,-0.4810564
789,7.889999999999876,0.8571841,0.19123067,0.2720281,0.83459467,-0.5551238,-0.4810564
790,7.899999999999876,0.8571841,0.19123067,0.2720281,0.83459467,-0.5551238,-0.4810564
791,7.909999999999876,0.6935161,0.08707825,0.32038453,0.7790059,-0.75579304,-0.5589417
792,7.919999999999876,0.57728976,0.07311402,0.30184686,0.89949906,-0.77350813,-0.61926466
793,7.929999999999875,0.5061271,0.048051585,0.21861032,0.89949906,-0.77350813,-0.61926466
794,7.939999999999875,0.49197996,0.02786748,0.031099375,0.86116725,-0.4343252,-0.5694791
795,7.949999999999875,0.5016756,0.05390558,-0.07585809,0.4251622,0.3587306,-0.5890268
796,7.959999999999875,0.4841746,0.08732217,-0.10177423,0.047800206,0.6469063,-0.5300783
797,7.9699999999998745,0.5038709,0.13165402,-0.00024391667,-0.007483099,0.61498857,-0.46670106
798,7.979999999999874,0.5038709,0.13165402,-0.00024391667,0.1704314,0.21135938,-0.19486602
799,7.989999999999874,0.7452874,0.2953831,0.13610551,0.7881689,-0.54351735,0.09239337
800,7.999999999999874,0.8259628,0.28587034,0.063418336,0.7881689,-0.54351735,0.09239337
801,8.009999999999874,0.8388904,0.22964753,-0.025428312,1.2296717,-1.5490016,0.06627888
802,8.019999999999873,0.69973594,0.17958365,-0.019330395,1.129948,-1.7621936,0.012675454
803,8.029999999999873,0.5923516,0.14653294,0.06573554,1.063211,-1.6869044,0.0106901415
804,8.039999999999873,0.4726495,0.11506769,0.060552314,1.0621419,-1.2437216,0.055283304
805,8.049999999999873,0.4475871,0.12342183,-0.021708583,1.0290025,-0.7984009,0.088728175
806,8.059999999999873,0.47319835,0.11262852,-0.09146875,0.91767234,-0.32543847,0.07513642
807,8.069999999999872,0.55552024,0.093054205,-0.1220803,0.49296826,0.4784602,0.015271631
808,8.079999999999872,0.5724114,0.13293459,-0.032745812,0.38148534,0.44135013,0.05879578
809,8.089999999999872,0.59887636,0.16921718,-0.017805915,0.38148534,0.44135013,0.05879578
810,8.099999999999872,0.6155847,0.16488767,-0.030245667,0.6062838,-0.1001819,0.26068676
811,8.109999999999872,0.5910101,0.16025324,-0.053844605,0.72311175,-0.42638394,0.39370266
812,8.119999999999871,0.5830218,0.15360652,-0.13031249,0.78877974,-0.701426,0.62888575
813,8.129999999999871,0.5719236,0.13049541,-0.17988855,0.7435757,-0.84665924,0.79427755
814,8.139999999999871,0.54375124,0.13080032,-0.1864743,0.6046039,-0.9240864,0.9735665
815,8.14999999999987,0.55015403,0.1299466,-0.14647196,0.48090366,-0.8491027,1.0936015
816,8.15999999999987,0.576741,0.114153,-0.11043327,0.44303003,-0.7150178,1.1111639
817,8.16999999999987,0.6596726,0.09518848,-0.110311314,0.44303003,-0.7150178,1.1111639
818,8.17999999999987,0.6596726,0.09518848,-0.110311314,0.44516805,-0.59437186,1.0005972
819,8.18999999999987,0.7821798,0.053600688,-0.24891695,0.4343252,-0.6114761,0.98471475
820,8.19999999999987,0.7833994,0.022196416,-0.30751795,0.3594942,-0.6963864,0.9221011
821,8.20999999999987,0.70498013,-0.012500729,-0.3409955,0.2507602,-0.743423,0.9326385
822,8.21999999999987,0.6232071,-0.07884607,-0.35904533,0.15134187,-0.66813385,1.0564915
823,8.229999999999869,0.57844836,-0.010915271,-0.36227724,0.095753126,-0.57787853,1.2246321
824,8.239999999999869,0.57844836,-0.010915271,-0.36227724,0.09117164,-0.6044512,1.413084
825,8.249999999999869,0.70333374,0.029391957,-0.34349567,0.21181752,-0.644921,1.5755742
826,8.259999999999868,0.8064495,0.03152623,-0.32154313,0.5647449,-0.2782491,1.302212
827,8.269999999999868,0.9348107,0.029696856,-0.3869738,0.5647449,-0.2782491,1.302212
828,8.279999999999868,1.0154251,0.04116094,-0.46527106,0.5484043,0.45753807,0.39385536
829,8.289999999999868,1.0378045,0.07451654,-0.58289987,0.4465425,0.66859204,-0.038331795
830,8.299999999999867,0.93974996,0.08793196,-0.47923526,0.4465425,0.66859204,-0.038331795
831,8.309999999999867,0.8971865,0.05768629,-0.39746222,0.6925685,1.0088439,-0.45173484
832,8.319999999999867,0.89584494,0.023416,-0.44087937,0.9848675,1.2875512,-0.5403103
833,8.329999999999867,0.89584494,0.023416,-0.44087937,0.9848675,1.2875512,-0.5403103
834,8.339999999999867,0.86480653,-0.016220458,-0.57911915,1.1140655,1.726458,-0.5719226
835,8.349999999999866,0.8639529,0.008537084,-0.6057671,1.0615311,1.8312213,-0.5152648
836,8.359999999999866,0.83004844,0.07134563,-0.5669233,1.0393872,1.787239,-0.4428773
837,8.369999999999866,0.83004844,0.07134563,-0.5669233,1.0393872,1.787239,-0.4428773
838,8.379999999999866,0.83004844,0.07134563,-0.5669233,1.0393872,1.787239,-0.4428773
839,8.389999999999866,0.96310496,0.08610259,-0.6222924,1.3106114,1.486846,-0.13408493
840,8.399999999999865,1.0719528,0.23781876,-0.48612595,0.9812023,1.3965907,-0.25702155
841,8.409999999999865,1.0719528,0.23781876,-0.48612595,0.93202764,1.4902058,-0.35430184
842,8.419999999999865,1.2864165,0.2177566,-0.617719,0.8165741,1.8692477,-1.0062478
843,8.429999999999865,1.3214185,0.24769738,-0.77565503,0.54382277,1.861001,-1.2611313
844,8.439999999999864,1.2122048,0.17080265,-0.67979574,0.45081854,1.8530598,-1.2727377
845,8.449999999999864,1.012803,0.08268775,-0.42435405,0.46486846,1.8497,-1.1490375
846,8.459999999999864,1.012803,0.08268775,-0.42435405,0.46486846,1.8497,-1.1490375
847,8.469999999999864,1.1534209,0.16635117,-0.44594067,0.46670106,1.8611537,-0.84940815
848,8.479999999999864,1.2537926,0.2365382,-0.4852722,0.33322698,1.7965547,-0.98822725
849,8.489999999999863,1.2537926,0.2365382,-0.4852722,0.33322698,1.7965547,-0.98822725
850,8.499999999999863,1.0933565,0.14878917,-0.32739717,0.042760566,1.8481728,-1.239751
851,8.509999999999863,1.0933565,0.14878917,-0.32739717,0.042760566,1.8481728,-1.239751
852,8.519999999999863,0.83297545,0.030977417,-0.24525821,-0.3578143,2.0511327,-0.8859073
853,8.529999999999863,0.80736417,-0.051466417,-0.22111045,-0.6757697,2.3634377,-0.552833
854,8.539999999999862,0.81510854,-0.050429773,-0.21470766,-0.97310835,2.6145031,-0.30604348
855,8.549999999999862,0.81754774,-0.01323248,-0.184401,-1.182177,2.7478247,-0.1366811
856,8.559999999999862,0.81754774,-0.01323248,-0.184401,-1.182177,2.7478247,-0.1366811
857,8.569999999999862,0.88114893,0.24147749,0.083053626,-1.3556627,2.4338398,0.4176791
858,8.579999999999862,1.3150157,0.4545387,0.049210187,-0.77182823,1.8048013,0.89980453
859,8.589999999999861,1.5057585,0.48941877,-0.08768804,-0.5112942,1.3923146,0.6646214
860,8.599999999999861,1.4627682,0.44508693,-0.10195717,-0.5645922,1.122923,0.29840767
861,8.60999999999986,1.1280537,0.24934383,0.09713981,-0.6374379,0.991587,0.13820826
862,8.61999999999986,1.1280537,0.24934383,0.09713981,-0.6414085,0.8142834,0.004276057
863,8.62999999999986,1.0015829,0.18153499,0.16592431,-0.5673411,0.68310004,0.08246681
864,8.63999999999986,0.8133401,0.13421515,0.19921893,-0.5143485,0.5946773,0.34498614
865,8.64999999999986,0.8387685,0.10903075,0.20708527,-0.54473907,0.57650405,0.54305923
866,8.65999999999986,0.93974996,0.16976601,0.25946635,-0.63697976,0.59803706,0.58016926
867,8.66999999999986,1.0246329,0.21293926,0.33093393,-0.7808385,0.64721173,0.6122397
868,8.67999999999986,1.0845145,0.24525821,0.41301188,-0.70112056,0.18982637,0.5546656
869,8.68999999999986,1.197021,0.33434877,0.46911272,-0.52564955,-0.24495697,0.45234573
870,8.699999999999859,1.197021,0.33434877,0.46911272,-0.52564955,-0.24495697,0.45234573
871,8.709999999999859,1.0865878,0.24861206,0.5494223,-0.31535918,-0.5015204,0.2209805
872,8.719999999999859,0.89328384,0.14293517,0.49374834,0.13561209,-0.15607607,-0.056505036
873,8.729999999999858,0.75114137,0.08427321,0.40776768,0.20952678,0.118966006,-0.04734206
874,8.739999999999858,0.70924866,0.058113147,0.37258273,0.21135938,0.3193298,-0.009010263
875,8.749999999999858,0.6975407,0.07195542,0.31477445,0.18646662,0.4998405,0.020616703
876,8.759999999999858,0.7524219,0.15293576,0.23830658,0.15714508,0.6400341,0.033292156
877,8.769999999999857,0.8555377,0.23178181,0.16379005,0.18982637,0.5705481,-0.012675454
878,8.779999999999857,1.0104858,0.29166338,0.13537374,0.33200526,0.26236662,-0.23197608
879,8.789999999999857,1.0784166,0.24818522,0.14147167,0.49678615,-0.074067414,-0.5488624
880,8.799999999999857,0.8846858,0.09402988,0.15799703,0.5720753,-0.18967366,-0.6898196
881,8.809999999999857,0.6268048,-0.07665081,0.1662902,0.569021,-0.15424347,-0.6433938
882,8.819999999999856,0.30044436,-0.2051949,0.070065066,0.39828414,0.12095132,-0.29947668
883,8.829999999999856,0.08409027,-0.107933134,-0.045856334,-0.1423316,0.7845037,0.7881689
884,8.839999999999856,0.08409027,-0.107933134,-0.045856334,-0.1423316,0.7845037,0.7881689
885,8.849999999999856,0.24477036,-0.041282896,-0.06896744,-0.27122417,1.0713049,1.2962561
886,8.859999999999856,0.24477036,-0.041282896,-0.06896744,-0.27122417,1.0713049,1.2962561
887,8.869999999999855,0.725835,0.118360564,-0.16110696,-0.5001459,1.502423,1.5389223
888,8.879999999999855,1.1938502,0.27989438,-0.06683317,-0.5290093,1.3061826,1.0795516
889,8.889999999999855,1.407765,0.22611076,-0.07957781,-0.36911532,1.1635456,0.54290646
890,8.899999999999855,1.1953746,0.11293342,-0.17049775,-0.30024028,1.0231993,0.25396723
891,8.909999999999854,1.027316,0.048905294,-0.1923283,-0.31887165,0.8582657,0.29856038
892,8.919999999999854,1.027316,0.048905294,-0.1923283,-0.31887165,0.8582657,0.29856038
893,8.929999999999854,0.8169379,-0.11421398,-0.21293926,-0.3911065,-0.04016439,1.2622004
894,8.939999999999854,0.94048166,-0.20739016,-0.17690057,-0.3295618,-0.4868596,1.7953329
895,8.949999999999854,1.1908011,-0.28184572,-0.16470474,-0.2835942,-0.7987063,2.0697641
896,8.959999999999853,1.305625,-0.2698938,-0.15055756,-0.2660318,-1.0157162,2.0865629
897,8.969999999999853,1.4847817,-0.20989029,-0.16507061,-0.16539176,-1.4976889,1.8544341
898,8.979999999999853,1.5432608,-0.18226673,-0.03079448,-0.012980887,-1.8770362,1.420109
899,8.989999999999853,1.5113076,-0.43984273,0.254649,0.37003163,-1.9317086,0.73273283
900,8.999999999999853,1.1234192,-0.9990217,0.32831186,0.53893584,-1.1696543,0.39187005
901,9.009999999999852,0.7497389,-1.360994,0.6311344,-0.9645562,1.2093605,0.27107146
902,9.019999999999852,0.7497389,-1.360994,0.6311344,-1.9465221,2.1213822,0.4653266
903,9.029999999999852,0.8279142,-1.4452063,1.2557441,-1.9465221,2.1213822,0.4653266
904,9.039999999999852,1.6200335,-1.1929355,2.6825345,-1.869095,2.2626448,0.66721755
905,9.049999999999851,1.6200335,-1.1929355,2.6825345,-1.869095,2.2626448,0.66721755
906,9.059999999999851,2.3019636,-0.8147426,2.4571555,-1.8322903,0.06505715,-1.2809844
907,9.069999999999851,2.8992546,-0.24977067,1.5039902,-2.7047586,-1.7930422,-2.7469082
908,9.07999999999985,2.3670893,-0.43032995,2.2927556,-3.8368447,-3.1839824,-4.0376663
909,9.08999999999985,2.3670893,-0.43032995,2.2927556,-4.177402,-3.1526756,-4.4865
910,9.09999999999985,1.5108198,-0.61625546,3.5300841,-3.8699841,-2.3823745,-4.8510337
911,9.10999999999985,0.47521064,0.11958014,3.0696304,-2.7035367,-0.90041536,-5.580254
912,9.11999999999985,0.080919355,0.21068303,2.6123476,-1.9194913,-0.3407101,-5.9151607
913,9.12999999999985,-0.3925229,0.23666015,2.3660526,-1.3041973,-0.07880162,-5.6873083
914,9.13999999999985,-0.76681304,0.16110696,2.1590893,-0.6078109,0.079870634,-4.5420885
915,9.14999999999985,-0.76681304,0.16110696,2.1590893,0.019547688,-0.0032070426,-3.2142203
916,9.15999999999985,-0.6920526,-0.22665958,1.6271071,0.7991645,-0.5884159,-1.2886202
917,9.169999999999849,-0.4189269,-0.3427639,1.2355598,1.2719742,-1.2848023,0.23304509
918,9.179999999999849,0.117933705,-0.5178351,0.9224319,1.528843,-1.9081903,1.7493653
919,9.189999999999849,0.5661306,-0.5947908,0.69930905,1.3952162,-1.8406897,2.5079072
920,9.199999999999848,1.527955,-0.29660267,0.65168434,0.80954915,-1.5022703,2.7192667
921,9.209999999999848,1.527955,-0.29660267,0.65168434,0.100792766,-1.1501065,2.1641428
922,9.219999999999848,1.6138136,-0.0019513334,0.8687092,-0.33200526,-0.7790059,1.5285375
923,9.229999999999848,1.5252719,0.044270877,1.0212182,-0.47403142,-0.29367346,0.27672195
924,9.239999999999847,1.5252719,0.044270877,1.0212182,-0.47403142,-0.29367346,0.27672195
925,9.249999999999847,1.3595306,0.060308397,1.1601896,-0.17333302,-0.47158796,-0.0021380284
926,9.259999999999847,1.2186077,-0.011220166,1.0120102,0.24770586,-0.7315111,-0.016798794
927,9.269999999999847,1.2186077,-0.011220166,1.0120102,0.838718,-0.9596693,-0.04138612
928,9.279999999999847,1.1554942,-0.11323831,0.6471719,0.8223773,-0.8220719,-0.13744467
929,9.289999999999846,1.1293342,-0.11567748,0.5382631,0.8223773,-0.8220719,-0.13744467
930,9.299999999999846,1.0551226,-0.09488358,0.6337565,0.20799962,-0.5540548,-0.3736968
931,9.309999999999846,1.012742,-0.082199916,0.72577405,0.119729586,-0.5412266,-0.3828598
932,9.319999999999846,0.9712152,-0.056954544,0.76937413,0.2396119,-0.5891795,-0.29138273
933,9.329999999999846,0.9712152,-0.056954544,0.76937413,0.38912117,-0.67103547,-0.20815234
934,9.339999999999845,0.9712152,-0.056954544,0.76937413,0.38912117,-0.67103547,-0.20815234
935,9.349999999999845,0.97761804,-0.09793254,0.58820504,0.42852196,-0.8743009,0.038789943
936,9.359999999999845,1.0196327,-0.054759294,0.6032059,0.28619036,-0.82512623,0.0035124752
937,9.369999999999845,1.0282307,-0.013598354,0.6466231,0.26328292,-0.8217665,-0.06765333
938,9.379999999999844,0.99444824,0.02872119,0.6832715,0.32482758,-0.7800749,-0.16646078
939,9.389999999999844,0.95883644,0.021525647,0.6420496,0.44730607,-0.70371675,-0.26633725
940,9.399999999999844,0.89133245,-0.031831127,0.3998404,0.5177083,-0.56673026,-0.33383787
941,9.409999999999844,0.863404,-0.051588375,0.3778879,0.38438696,-0.42714754,-0.32421672
942,9.419999999999844,0.8310241,-0.062076796,0.35380113,-0.054061573,0.0010690142,-0.2883284
943,9.429999999999843,0.8310241,-0.062076796,0.35380113,-0.054061573,0.0010690142,-0.2883284
944,9.439999999999843,0.7617518,-0.033111688,0.5443001,-0.7142542,0.5885687,-0.43799037
945,9.449999999999843,0.7617518,-0.033111688,0.5443001,-0.8174904,0.45982882,-0.41981715
946,9.459999999999843,0.7666301,0.20751211,1.0910393,-0.4213443,-0.061086524,-0.23777929
947,9.469999999999843,0.8199259,0.2014142,1.077075,0.3747658,-0.50976706,-0.048716504
948,9.479999999999842,0.8199259,0.2014142,1.077075,1.483639,-0.9955576,0.11942416
949,9.489999999999842,0.9121874,0.07530928,0.49332145,1.9219347,-1.5163202,0.205098
950,9.499999999999842,0.9121874,0.07530928,0.49332145,1.9219347,-1.5163202,0.205098
951,9.509999999999842,0.96828824,0.04323423,0.25983223,1.349096,-2.4510968,0.30925053
952,9.519999999999841,0.9562143,0.08933448,0.51698136,1.0031935,-2.5415049,0.10308351
953,9.529999999999841,0.90511376,0.107933134,0.6487574,1.0311406,-2.0781636,-0.27046058
954,9.539999999999841,0.8698678,0.11165286,0.5109445,1.1336132,-1.4445436,-0.59666264
955,9.54999999999984,0.8438907,0.066650234,0.20617057,0.9744828,-0.41981715,-1.1255192
956,9.55999999999984,0.8334022,0.041404855,0.10110346,0.9166033,-0.34330627,-1.1664472
957,9.56999999999984,0.82565796,0.02853825,0.051466417,0.6403395,-0.18051068,-1.2631166
958,9.57999999999984,0.78699714,0.04616123,0.16007032,0.27488935,-0.30604348,-1.2527319
959,9.58999999999984,0.7413237,0.04634417,0.29263905,0.18661933,-0.4981606,-1.1986703
960,9.59999999999984,0.638086,0.048112564,0.4309398,0.21456642,-0.68707067,-1.1108584
961,9.60999999999984,0.6082672,0.08183405,0.37075335,0.30069843,-0.8713993,-0.73639804
962,9.61999999999984,0.6082672,0.08183405,0.37075335,0.24938573,-0.72250086,-0.5317582
963,9.62999999999984,0.59107107,0.125861,0.30428603,0.24938573,-0.72250086,-0.5317582
964,9.639999999999839,0.6041206,0.13762999,0.3081887,0.26419923,-0.49770245,-0.42378777
965,9.649999999999839,0.6880889,0.13927643,0.0453685,0.3191771,0.16187929,-0.4175264
966,9.659999999999838,0.69266236,0.10677453,-0.053600688,0.13561209,0.3594942,-0.5161811
967,9.669999999999838,0.646989,0.08183405,-0.0006707709,-0.05665775,0.38744128,-0.5529858
968,9.679999999999838,0.56411827,0.07841921,0.14915505,-0.15775596,0.24663684,-0.45875978
969,9.689999999999838,0.56411827,0.07841921,0.14915505,-0.15775596,0.24663684,-0.45875978
970,9.699999999999838,0.512164,0.04994194,0.19379179,0.013286319,-0.072540246,0.01450805
971,9.709999999999837,0.49813882,0.10970152,0.15147226,0.06093381,-0.23793201,0.25045475
972,9.719999999999837,0.53082365,0.15116736,0.12012896,0.084910266,-0.40439278,0.56199604
973,9.729999999999837,0.59137595,0.1568994,0.10701844,0.14935656,-0.50747633,0.79045963
974,9.739999999999837,0.6285733,0.17555903,0.07939488,0.14935656,-0.50747633,0.79045963
975,9.749999999999837,0.6835155,0.16007032,0.006524771,0.3118467,-0.3585779,0.86299986
976,9.759999999999836,0.70302886,0.13226382,-0.03237994,0.27198774,-0.172264,0.7334964
977,9.769999999999836,0.69699186,0.11317733,-0.050246835,0.19181168,0.044135015,0.5546656
978,9.779999999999836,0.70626074,0.05469831,-0.06646729,0.059406646,0.41279218,0.29184088
979,9.789999999999836,0.6406471,0.03945352,0.02414775,0.059406646,0.41279218,0.29184088
980,9.799999999999836,0.6406471,0.03945352,0.02414775,-0.04932737,0.59864795,0.21945333
981,9.809999999999835,0.6248535,0.07658983,0.07469948,0.25625798,0.24480425,0.5897904
982,9.819999999999835,0.8394393,0.19507235,-0.009390792,0.25625798,0.24480425,0.5897904
983,9.829999999999835,0.7309573,0.13610551,0.05116152,0.6075055,-0.110413894,0.6791294
984,9.839999999999835,0.9720689,0.23379412,-0.18885247,0.9621128,-0.45249844,0.59956425
985,9.849999999999834,0.9728616,0.16543648,-0.37557068,1.1302534,-0.6178902,0.3578143
986,9.859999999999834,0.9430428,0.12915388,-0.39301074,0.9419542,-0.63804877,-0.092240654
987,9.869999999999834,0.9430428,0.12915388,-0.39301074,0.9419542,-0.63804877,-0.092240654
988,9.879999999999834,0.7959001,0.04036821,-0.2959319,0.6421721,-0.398895,-0.45356745
989,9.889999999999834,0.6975407,0.046527103,-0.3150184,0.50747633,-0.24953845,-0.46731192
990,9.899999999999833,0.6570505,0.06866254,-0.32154313,0.41126502,-0.18051068,-0.4277584
991,9.909999999999833,0.6097917,0.09884723,-0.24147749,0.30375275,-0.17730364,-0.2779437
992,9.919999999999833,0.60070574,0.11604336,-0.17159538,0.35705075,-0.29749137,-0.026419923
993,9.929999999999833,0.63650054,0.12689765,-0.20110929,0.47250426,-0.35369098,0.1947133
994,9.939999999999833,0.6488183,0.12793429,-0.21659799,0.47250426,-0.35369098,0.1947133
995,9.949999999999832,0.705468,0.15757017,-0.19446257,0.5342017,-0.39706242,0.3911065
996,9.959999999999832,0.75742227,0.14836231,-0.16970502,0.6238461,-0.2499966,0.38621956
997,9.969999999999832,0.85163504,0.12884897,-0.17220518,0.8000808,0.064599,0.20372356
998,9.979999999999832,0.85407424,0.09268834,-0.19897503,0.8000808,0.064599,0.20372356
999,9.989999999999831,0.83297545,0.06274756,-0.21787858,0.88407475,0.7151705,-0.13362677
1000,9.999999999999831,0.71802974,0.0307335,-0.10653061,0.8791878,0.91767234,-0.1919644
