id,timestamp,acc_x,acc_y,acc_z,gyro_x,gyro_y,gyro_z
0,0,-0.08860273,-0.40295035,-0.76705694,0.013591751,0.17669277,0.089186326
1,0.01,-0.103115775,-0.41630477,-0.78175294,-0.0035124752,0.116675265,-0.057421334
2,0.02,-0.19488941,-0.5392997,-0.8326705,-0.0035124752,0.116675265,-0.057421334
3,0.03,-0.19488941,-0.5392997,-0.8326705,-0.02397646,0.063988134,-0.048716504
4,0.04,-0.20263378,-0.6606483,-0.8113278,-0.09773844,0.06734789,-0.00030543262
5,0.05,-0.20263378,-0.6606483,-0.8113278,-0.09773844,0.06734789,-0.00030543262
6,0.060000000000000005,-0.20263378,-0.6606483,-0.8113278,-0.09773844,0.06734789,-0.00030543262
7,0.07,-0.2558076,-0.57680196,-0.7090658,-0.048258353,0.088422745,0.080634214
8,0.08,-0.22861089,-0.5055783,-0.7418116,0.116980694,0.16661349,0.21105394
9,0.09,-0.22861089,-0.5055783,-0.7418116,0.116980694,0.16661349,0.21105394
10,0.09999999999999999,-0.11281146,-0.45697787,-0.8474884,0.060628377,0.15286903,0.24007004
11,0.10999999999999999,-0.06915038,-0.4548436,-0.87925863,0.060628377,0.15286903,0.24007004
12,0.11999999999999998,-0.04268542,-0.47173482,-0.8841369,-0.028405234,0.14126259,0.18570304
13,0.12999999999999998,-0.0646989,-0.49716315,-0.86309916,-0.100334615,0.12965615,0.12782355
14,0.13999999999999999,-0.120738745,-0.52039623,-0.8497447,-0.15653422,-0.00870483,0.07544186
15,0.15,-0.18098617,-0.55192244,-0.8479763,-0.15653422,-0.00870483,0.07544186
16,0.16,-0.18098617,-0.55192244,-0.8479763,-0.15363261,-0.06352998,0.07452556
17,0.17,-0.19263318,-0.5417999,-0.8613918,-0.15470162,-0.07941248,0.06963864
18,0.18000000000000002,-0.19263318,-0.5417999,-0.8613918,-0.17302758,-0.0759,0.049938235
19,0.19000000000000003,-0.18598646,-0.48612595,-0.82937765,-0.17638734,-0.08689558,0.031612277
20,0.20000000000000004,-0.18684018,-0.45289227,-0.81126684,-0.16630806,-0.11133019,0.004886922
21,0.21000000000000005,-0.18842563,-0.4256346,-0.81602323,-0.16600263,-0.14065172,-0.013286319
22,0.22000000000000006,-0.18842563,-0.4256346,-0.81602323,-0.16600263,-0.14065172,-0.013286319
23,0.23000000000000007,-0.18787682,-0.40764573,-0.8303533,-0.17898351,-0.1469131,-0.0720821
24,0.24000000000000007,-0.20409729,-0.39618164,-0.8745022,-0.21319197,-0.14477506,-0.09682214
25,0.25000000000000006,-0.20556077,-0.40447482,-0.86614805,-0.23869559,-0.15714508,-0.12018774
26,0.26000000000000006,-0.20360945,-0.415634,-0.8596233,-0.24083363,-0.18768835,-0.14080444
27,0.2700000000000001,-0.20299964,-0.42831767,-0.86584324,-0.23182335,-0.21945333,-0.16630806
28,0.2800000000000001,-0.20470706,-0.4318545,-0.8872469,-0.22403483,-0.24633141,-0.20295998
29,0.2900000000000001,-0.1923283,-0.43228132,-0.90462595,-0.21029036,-0.257327,-0.23579398
30,0.3000000000000001,-0.1923283,-0.43228132,-0.90462595,-0.21029036,-0.257327,-0.23579398
31,0.3100000000000001,-0.14982581,-0.47033232,-0.99487513,-0.20112738,-0.25977045,-0.32742378
32,0.3200000000000001,-0.15781409,-0.4909433,-1.0142055,-0.25793785,-0.32604933,-0.3678936
33,0.3300000000000001,-0.22263494,-0.51015174,-0.9532263,-0.39095375,-0.4980079,-0.44516805
34,0.34000000000000014,-0.22263494,-0.51015174,-0.9532263,-0.39813143,-0.51144695,-0.45860708
35,0.35000000000000014,-0.29952967,-0.47527164,-0.8857224,-0.36651915,-0.5025894,-0.42424592
36,0.36000000000000015,-0.3091034,-0.4601488,-0.8616357,-0.31673363,-0.5035057,-0.34804046
37,0.37000000000000016,-0.3091034,-0.4601488,-0.8616357,-0.31673363,-0.5035057,-0.34804046
38,0.38000000000000017,-0.23550156,-0.46832004,-0.8052299,-0.19868392,-0.49770245,-0.2322815
39,0.3900000000000002,-0.22952558,-0.47124702,-0.81876725,-0.15653422,-0.45341474,-0.18081611
40,0.4000000000000002,-0.18708408,-0.5149081,-0.84462243,-0.09972375,-0.38331795,-0.1366811
41,0.4100000000000002,-0.15635058,-0.53759235,-0.8362074,-0.07696902,-0.31597003,-0.11728613
42,0.4200000000000002,-0.15635058,-0.53759235,-0.8362074,-0.07696902,-0.31597003,-0.11728613
43,0.4300000000000002,-0.18348631,-0.55777645,-0.84163445,-0.07147124,-0.25137106,-0.11010846
44,0.4400000000000002,-0.23373315,-0.5666794,-0.7796187,-0.049785517,-0.26206118,-0.04153884
45,0.45000000000000023,-0.25367334,-0.5486296,-0.74888515,-0.010995574,-0.24953845,0.013744468
46,0.46000000000000024,-0.2519659,-0.51692045,-0.7399822,0.028863383,-0.22113322,0.07009678
47,0.47000000000000025,-0.24428254,-0.49496788,-0.74455565,0.054061573,-0.17333302,0.09819659
48,0.48000000000000026,-0.24568506,-0.4852722,-0.7554099,0.062308256,-0.129198,0.118966006
49,0.49000000000000027,-0.24568506,-0.4852722,-0.7554099,0.062308256,-0.129198,0.118966006
50,0.5000000000000002,-0.24598998,-0.47313735,-0.7808992,0.044135015,-0.04260785,0.16982053
51,0.5100000000000002,-0.25916147,-0.49124816,-0.7666911,0.015271631,0.021991149,0.19746219
52,0.5200000000000002,-0.26995477,-0.5111884,-0.7490071,0.036651913,0.089186326,0.23044892
53,0.5300000000000002,-0.2766625,-0.54240966,-0.74138474,0.081397794,0.13958271,0.27214047
54,0.5400000000000003,-0.2789797,-0.5527152,-0.7480924,0.1151481,0.16676621,0.3089451
55,0.5500000000000003,-0.27586976,-0.5517395,-0.7660813,0.1572978,0.19883664,0.39828414
56,0.5600000000000003,-0.2593444,-0.5497272,-0.76547146,0.15409076,0.23075435,0.49480084
57,0.5700000000000003,-0.23056222,-0.54369026,-0.76772773,0.15409076,0.23075435,0.49480084
58,0.5800000000000003,-0.2031826,-0.5308846,-0.78559464,0.13209961,0.21471913,0.50579643
59,0.5900000000000003,-0.2031826,-0.5308846,-0.78559464,0.13209961,0.21471913,0.50579643
60,0.6000000000000003,-0.20757309,-0.5111884,-0.8497447,0.040011674,0.2593123,0.47693303
61,0.6100000000000003,-0.20757309,-0.5111884,-0.8497447,-0.012675454,0.26633725,0.45814893
62,0.6200000000000003,-0.245868,-0.49246776,-0.88053924,-0.06872234,0.23900102,0.44318274
63,0.6300000000000003,-0.245868,-0.49246776,-0.88053924,-0.06872234,0.23900102,0.44318274
64,0.6400000000000003,-0.25611252,-0.4852722,-0.8837101,-0.09285152,0.20219639,0.4297437
65,0.6500000000000004,-0.286785,-0.46502712,-0.8959059,-0.10048734,0.11301007,0.3933972
66,0.6600000000000004,-0.292761,-0.44947743,-0.8966987,-0.09789115,0.10323623,0.36896262
67,0.6700000000000004,-0.298554,-0.43978173,-0.90413815,-0.09025534,0.0983493,0.344528
68,0.6800000000000004,-0.28928518,-0.4300251,-0.91444355,-0.09117164,0.08368854,0.31642818
69,0.6900000000000004,-0.27221102,-0.4119143,-0.92663944,-0.11881329,0.06383542,0.25030205
70,0.7000000000000004,-0.26641798,-0.4045358,-0.92621255,-0.13209961,0.05390886,0.22220223
71,0.7100000000000004,-0.26885715,-0.39532796,-0.92779803,-0.17287487,0.01817324,0.13148874
72,0.7200000000000004,-0.28196767,-0.4027064,-0.9288347,-0.19914207,-0.023518313,0.065515295
73,0.7300000000000004,-0.29550505,-0.41789025,-0.9317007,-0.21960606,-0.050549097,0.028710667
74,0.7400000000000004,-0.30715206,-0.42728102,-0.9326763,-0.23625213,-0.08002335,-0.005497787
75,0.7500000000000004,-0.32117727,-0.42642733,-0.9430428,-0.23839016,-0.10094548,-0.027488936
76,0.7600000000000005,-0.32117727,-0.42642733,-0.9430428,-0.25503623,-0.13408493,-0.07880162
77,0.7700000000000005,-0.32636052,-0.40490165,-0.9229197,-0.26083946,-0.14874569,-0.10567969
78,0.7800000000000005,-0.32526287,-0.38923004,-0.8972475,-0.24602598,-0.15363261,-0.13362677
79,0.7900000000000005,-0.31739658,-0.37447307,-0.86566025,-0.16126843,-0.1421789,-0.1797471
80,0.8000000000000005,-0.3123963,-0.38130274,-0.8733436,-0.09392053,-0.12461651,-0.20021108
81,0.8100000000000005,-0.3111767,-0.3925229,-0.8902349,-0.058490347,-0.11835514,-0.20479257
82,0.8200000000000005,-0.31245726,-0.40862137,-0.8963937,-0.047494773,-0.102319926,-0.20234911
83,0.8300000000000005,-0.30757892,-0.4241711,-0.8893202,-0.055283304,-0.053603426,-0.1928807
84,0.8400000000000005,-0.3052617,-0.4353303,-0.8735875,-0.051923547,-0.019394971,-0.18692477
85,0.8500000000000005,-0.29635876,-0.44002566,-0.83053625,0.021227567,0.020158553,-0.18173242
86,0.8600000000000005,-0.29867595,-0.43715966,-0.8437687,0.10705414,0.01695151,-0.183565
87,0.8700000000000006,-0.30574957,-0.4265493,-0.87663656,0.17577648,0.005192355,-0.18921551
88,0.8800000000000006,-0.3100181,-0.4042919,-0.90371126,0.21487185,0.007941248,-0.19135354
89,0.8900000000000006,-0.31154257,-0.39551088,-0.8999306,0.20861048,0.02733622,-0.19394971
90,0.9000000000000006,-0.29934675,-0.4001453,-0.8500496,0.19456059,0.098043874,-0.18952094
91,0.9100000000000006,-0.27080846,-0.41496322,-0.81888926,0.21029036,0.12996158,-0.18096884
92,0.9200000000000006,-0.240014,-0.4225856,-0.8253531,0.23609942,0.11301007,-0.17821993
93,0.9300000000000006,-0.21537842,-0.4195977,-0.8514522,0.24266621,0.066737026,-0.18784106
94,0.9400000000000006,-0.20153615,-0.40691397,-0.8801733,0.22617286,0.007941248,-0.2182316
95,0.9500000000000006,-0.19982874,-0.38459563,-0.91651684,0.15714508,-0.06337727,-0.2857322
96,0.9600000000000006,-0.24745347,-0.38886416,-0.92816395,0.0047342055,-0.09010262,-0.36972618
97,0.9700000000000006,-0.28062615,-0.40301132,-0.8712703,-0.03436117,-0.10140363,-0.37110063
98,0.9800000000000006,-0.28062615,-0.40301132,-0.8712703,-0.03436117,-0.10140363,-0.37110063
99,0.9900000000000007,-0.28965104,-0.4112435,-0.83571947,-0.020922136,-0.09514226,-0.36743546
100,1.0000000000000007,-0.3052617,-0.44423324,-0.76821554,0.089949906,-0.04917465,-0.3118467
101,1.0100000000000007,-0.3052617,-0.44423324,-0.76821554,0.089949906,-0.04917465,-0.3118467
102,1.0200000000000007,-0.24227023,-0.47844255,-0.75888574,0.2817616,0.09987647,-0.2218968
103,1.0300000000000007,-0.1604362,-0.48874804,-0.79644895,0.3492622,0.22479841,-0.1853976
104,1.0400000000000007,-0.15049659,-0.48295498,-0.8183404,0.34788775,0.23701571,-0.19639318
105,1.0500000000000007,-0.15049659,-0.48295498,-0.8183404,0.31627548,0.21365012,-0.1928807
106,1.0600000000000007,-0.16354613,-0.47191778,-0.84200037,0.31627548,0.21365012,-0.1928807
107,1.0700000000000007,-0.18025441,-0.4603927,-0.87688047,0.2049453,0.18371773,-0.17501289
108,1.0800000000000007,-0.17677861,-0.4672224,-0.884076,0.16584991,0.15897769,-0.17638734
109,1.0900000000000007,-0.1709246,-0.47057623,-0.87962455,0.11133019,0.1049161,-0.18997909
110,1.1000000000000008,-0.18513274,-0.4667955,-0.87688047,0.08964448,0.058337633,-0.20586158
111,1.1100000000000008,-0.20598765,-0.4677712,-0.8376099,0.059864793,-0.032223143,-0.22770002
112,1.1200000000000008,-0.19885308,-0.4841746,-0.80663246,0.08200866,-0.04550946,-0.23243423
113,1.1300000000000008,-0.2031826,-0.4944191,-0.8045591,0.094225965,-0.04046982,-0.2237294
114,1.1400000000000008,-0.18988912,-0.5177131,-0.8060836,0.114689946,-0.013439035,-0.20906863
115,1.1500000000000008,-0.22848894,-0.57338715,-0.7658374,0.11453723,0.010995574,-0.1994475
116,1.1600000000000008,-0.24897793,-0.58661956,-0.75321466,0.16294831,0.013744468,-0.122020334
117,1.1700000000000008,-0.24897793,-0.58661956,-0.75321466,0.16294831,0.013744468,-0.122020334
118,1.1800000000000008,-0.21050009,-0.56545985,-0.76431286,0.18600847,0.01160644,-0.08399397
119,1.1900000000000008,-0.19775544,-0.55960584,-0.7740086,0.21365012,0.04718934,-0.01786781
120,1.2000000000000008,-0.17568098,-0.5458855,-0.79833925,0.18112154,0.10323623,0.023365596
121,1.2100000000000009,-0.15860681,-0.53850704,-0.80065644,0.15653422,0.10797043,0.026725354
122,1.2200000000000009,-0.15860681,-0.53850704,-0.80065644,0.15653422,0.10797043,0.026725354
123,1.2300000000000009,-0.19104773,-0.5441171,-0.8228529,0.06429356,0.12568553,0.05299256
124,1.2400000000000009,-0.19934091,-0.55100775,-0.8199259,0.061850104,0.13057245,0.06765333
125,1.2500000000000009,-0.21373199,-0.56234986,-0.83504874,0.06856962,0.15027285,0.12522738
126,1.260000000000001,-0.22104947,-0.57503355,-0.8276703,0.06582073,0.1601994,0.1740966
127,1.270000000000001,-0.20659742,-0.57728976,-0.8084618,0.06582073,0.1601994,0.1740966
128,1.280000000000001,-0.20379238,-0.56753314,-0.79785144,0.099571034,0.16172658,0.25259277
129,1.290000000000001,-0.21550037,-0.5520444,-0.8093765,0.12156218,0.16310102,0.2857322
130,1.300000000000001,-0.2066584,-0.5471051,-0.81712085,0.1572978,0.21960606,0.36147952
131,1.310000000000001,-0.18037638,-0.550337,-0.81340116,0.16539176,0.2648101,0.40424007
132,1.320000000000001,-0.16879034,-0.5517395,-0.80254686,0.16997325,0.2845105,0.4250095
133,1.330000000000001,-0.14653294,-0.55832523,-0.7788869,0.16997325,0.2845105,0.4250095
134,1.340000000000001,-0.13330047,-0.5574716,-0.8362683,0.11759156,0.25610524,0.4100433
135,1.350000000000001,-0.1501917,-0.5323481,-0.86742866,0.056963183,0.19700404,0.37323865
136,1.360000000000001,-0.1501917,-0.5323481,-0.86742866,-0.0047342055,0.12935072,0.3266602
137,1.370000000000001,-0.2212934,-0.4353303,-0.8854175,-0.051465396,0.054519724,0.26297748
138,1.380000000000001,-0.2212934,-0.4353303,-0.8854175,-0.051465396,0.054519724,0.26297748
139,1.390000000000001,-0.24434352,-0.3975232,-0.8938936,-0.0917825,-0.055741455,0.16539176
140,1.400000000000001,-0.21495157,-0.3881324,-0.9112727,-0.1366811,-0.0804815,0.12843442
141,1.410000000000001,-0.21495157,-0.3881324,-0.9112727,-0.1366811,-0.0804815,0.12843442
142,1.420000000000001,-0.184401,-0.49637043,-0.8330974,-0.2322815,-0.15928312,0.030390546
143,1.430000000000001,-0.19897503,-0.54167795,-0.81175464,-0.24648413,-0.18997909,0.0010690142
144,1.440000000000001,-0.2303793,-0.5944859,-0.8060836,-0.24358252,-0.22418754,-0.029474247
145,1.450000000000001,-0.25312454,-0.61271864,-0.81096196,-0.23380867,-0.21319197,-0.04046982
146,1.460000000000001,-0.2795895,-0.5982056,-0.80943745,-0.22434026,-0.17654006,-0.041691553
147,1.470000000000001,-0.29782224,-0.56570375,-0.80760807,-0.22342396,-0.13500121,-0.04062254
148,1.480000000000001,-0.31861615,-0.5346044,-0.79400975,-0.21762075,-0.09101892,-0.035888333
149,1.490000000000001,-0.32532385,-0.5067369,-0.7686424,-0.16691893,-0.016187929,-0.010231993
150,1.500000000000001,-0.31721362,-0.48813823,-0.76089805,-0.111177474,0.032986723,0.0143553335
151,1.5100000000000011,-0.27769914,-0.47142997,-0.7807773,-0.05390886,0.06887506,0.039095376
152,1.5200000000000011,-0.24525821,-0.46642965,-0.8097424,-0.01985312,0.08246681,0.052687127
153,1.5300000000000011,-0.24525821,-0.46642965,-0.8097424,-0.01985312,0.08246681,0.052687127
154,1.5400000000000011,-0.14336202,-0.45655105,-0.96719056,-0.044593163,-0.026267206,0.021227567
155,1.5500000000000012,-0.15775311,-0.43484247,-1.004144,-0.074830994,-0.0571159,0.0027488936
156,1.5600000000000012,-0.15775311,-0.43484247,-1.004144,-0.19853121,-0.14584407,-0.08323039
157,1.5700000000000012,-0.22989148,-0.40484068,-0.9229197,-0.3286455,-0.23105977,-0.14859296
158,1.5800000000000012,-0.27501604,-0.41356072,-0.8374879,-0.3286455,-0.23105977,-0.14859296
159,1.5900000000000012,-0.30465192,-0.4238662,-0.7908998,-0.27885997,-0.18432859,-0.1301143
160,1.6000000000000012,-0.3331292,-0.4721007,-0.7413237,-0.06856962,-0.05589417,-0.03390302
161,1.6100000000000012,-0.307335,-0.4920409,-0.77638674,0.06918049,0.002443461,0.019394971
162,1.6200000000000012,-0.26123476,-0.5012488,-0.8484642,0.06918049,0.002443461,0.019394971
163,1.6300000000000012,-0.20110929,-0.49429715,-0.9210293,0.16905695,0.050701816,0.052839845
164,1.6400000000000012,-0.181474,-0.48838213,-0.933591,0.13836098,0.0627664,0.036651913
165,1.6500000000000012,-0.17519315,-0.45899022,-0.90169895,0.04184427,0.064446285,-0.0030543262
166,1.6600000000000013,-0.19269417,-0.45216054,-0.86102587,0.012675454,0.049632803,-0.01786781
167,1.6700000000000013,-0.2157443,-0.46490517,-0.83870745,0.013897184,0.04718934,-0.019089539
168,1.6800000000000013,-0.2326965,-0.47716197,-0.8382196,0.0346666,0.049785517,-0.0067195175
169,1.6900000000000013,-0.23556253,-0.48551616,-0.84254915,0.040775254,0.042455133,-0.004276057
170,1.7000000000000013,-0.24184339,-0.48216227,-0.8494398,0.0571159,0.0022907446,-0.023518313
171,1.7100000000000013,-0.24812423,-0.46270993,-0.86486757,0.06246097,-0.028252518,-0.052687127
172,1.7200000000000013,-0.25806385,-0.40971902,-0.87535596,0.0664316,-0.04046982,-0.09666943
173,1.7300000000000013,-0.26214942,-0.37172902,-0.88218564,0.060170226,0.019242255,-0.13622294
174,1.7400000000000013,-0.20915854,-0.3986208,-0.85456204,0.060170226,0.019242255,-0.13622294
175,1.7500000000000013,-0.20915854,-0.3986208,-0.85456204,0.025809057,0.03359759,-0.14737125
176,1.7600000000000013,-0.1925722,-0.43496442,-0.8324875,0.016340645,-0.00061086525,-0.15470162
177,1.7700000000000014,-0.20147517,-0.53490925,-0.8084618,0.06612616,-0.10522154,-0.15271631
178,1.7800000000000014,-0.20440216,-0.5514346,-0.7970587,0.06612616,-0.10522154,-0.15271631
179,1.7900000000000014,-0.21037814,-0.5757653,-0.7676058,0.094531395,-0.13683382,-0.14263703
180,1.8000000000000014,-0.2248302,-0.5822291,-0.7862044,0.099265605,-0.13057245,-0.129198
181,1.8100000000000014,-0.24403864,-0.55863017,-0.82809705,0.099265605,-0.13057245,-0.129198
182,1.8200000000000014,-0.24775836,-0.5069808,-0.82486516,0.018020526,-0.095753126,-0.11881329
183,1.8300000000000014,-0.24373372,-0.47374716,-0.81059605,0.015271631,-0.05787948,-0.12385293
184,1.8400000000000014,-0.27404037,-0.43691576,-0.825475,0.057421334,0.027794369,-0.099571034
185,1.8500000000000014,-0.24897793,-0.4334399,-0.84864706,0.09743301,0.056199603,-0.07360926
186,1.8600000000000014,-0.20330454,-0.45905116,-0.86736774,0.113162786,0.07345655,-0.067500606
187,1.8700000000000014,-0.17818113,-0.49496788,-0.8720631,0.11453723,0.07941248,-0.082161374
188,1.8800000000000014,-0.17031482,-0.53192127,-0.85303754,0.11102476,0.062308256,-0.098043874
189,1.8900000000000015,-0.17086363,-0.57472867,-0.8232798,0.112704635,0.0013744468,-0.096516706
190,1.9000000000000015,-0.17543708,-0.60290104,-0.7883387,0.10781772,-0.024281893,-0.052534413
191,1.9100000000000015,-0.17171735,-0.6149749,-0.76431286,0.087964594,-0.021838432,-0.013439035
192,1.9200000000000015,-0.18312044,-0.60235226,-0.7499218,0.087964594,-0.021838432,-0.013439035
193,1.9300000000000015,-0.20409729,-0.56887466,-0.76565444,0.07284568,-0.013439035,0.03283401
194,1.9400000000000015,-0.2080609,-0.55576414,-0.7692522,0.03023783,0.04138612,0.11804971
195,1.9500000000000015,-0.2110489,-0.5333848,-0.77492326,0.018936822,0.06337727,0.15332718
196,1.9600000000000015,-0.19702369,-0.5142983,-0.7765087,0.016340645,0.053603426,0.19013181
197,1.9700000000000015,-0.19702369,-0.5142983,-0.7765087,0.016340645,0.053603426,0.19013181
198,1.9800000000000015,-0.18348631,-0.50588316,-0.76772773,0.011453724,0.03772093,0.2060143
199,1.9900000000000015,-0.15336262,-0.4993584,-0.7665081,-0.015271631,-0.0062613687,0.2218968
200,2.0000000000000013,-0.15494807,-0.5145422,-0.79218036,-0.08475755,-0.044593163,0.22892176
201,2.010000000000001,-0.16738781,-0.52686,-0.8072422,-0.08475755,-0.044593163,0.22892176
202,2.020000000000001,-0.18434003,-0.5391778,-0.8130962,-0.13133603,-0.063224554,0.23487769
203,2.0300000000000007,-0.2172078,-0.5599107,-0.83120704,-0.19990565,-0.073303826,0.26267207
204,2.0400000000000005,-0.2321477,-0.5688137,-0.8414515,-0.21365012,-0.06246097,0.27473664
205,2.0500000000000003,-0.24281906,-0.5669233,-0.8455371,-0.21991149,-0.05024367,0.28817567
206,2.06,-0.25300255,-0.55192244,-0.8599282,-0.21013765,-0.047647487,0.2930626
207,2.07,-0.2617226,-0.5315554,-0.87681943,-0.205098,-0.057421334,0.2930626
208,2.0799999999999996,-0.2736135,-0.49027252,-0.8857224,-0.19135354,-0.080634214,0.26633725
209,2.0899999999999994,-0.2775772,-0.468381,-0.8889543,-0.17531833,-0.07192938,0.23457226
210,2.099999999999999,-0.29282197,-0.4353303,-0.8943815,-0.16661349,-0.064599,0.21013765
211,2.109999999999999,-0.29867595,-0.41935372,-0.9092604,-0.16661349,-0.064599,0.21013765
212,2.1199999999999988,-0.29050475,-0.42618343,-0.93981093,-0.15790866,-0.06704246,0.18952094
213,2.1299999999999986,-0.2939196,-0.42917135,-0.93932307,-0.17073683,-0.1001819,0.111177474
214,2.1399999999999983,-0.30276155,-0.43307403,-0.9271883,-0.17501289,-0.13087788,0.047647487
215,2.149999999999998,-0.3117255,-0.43496442,-0.90529674,-0.17104226,-0.14065172,0.013591751
216,2.159999999999998,-0.3117255,-0.43496442,-0.90529674,-0.17104226,-0.14065172,0.013591751
217,2.1699999999999977,-0.2903828,-0.4416111,-0.89139354,-0.1459968,-0.1638646,-0.053450707
218,2.1799999999999975,-0.28141886,-0.45039213,-0.9087116,-0.1459968,-0.1638646,-0.053450707
219,2.1899999999999973,-0.28263843,-0.45539245,-0.9301152,-0.14034629,-0.19318613,-0.13408493
220,2.199999999999997,-0.28739482,-0.4520386,-0.94334775,-0.16310102,-0.22999077,-0.17440203
221,2.209999999999997,-0.28989497,-0.44423324,-0.93907917,-0.17730364,-0.2667954,-0.20616703
222,2.2199999999999966,-0.29001692,-0.4378914,-0.9338349,-0.18066339,-0.29245174,-0.22937989
223,2.2299999999999964,-0.280992,-0.4211831,-0.91932195,-0.15653422,-0.36682457,-0.28878653
224,2.239999999999996,-0.28196767,-0.41343874,-0.9233466,-0.1375974,-0.41447207,-0.32162055
225,2.249999999999996,-0.28885832,-0.40081608,-0.9225539,-0.13103059,-0.45463645,-0.34956762
226,2.259999999999996,-0.29202923,-0.40410894,-0.8967596,-0.13561209,-0.46700647,-0.3727805
227,2.2699999999999956,-0.30135906,-0.43289113,-0.8716362,-0.13973543,-0.41080686,-0.37904188
228,2.2799999999999954,-0.3181893,-0.4931995,-0.8135231,-0.13408493,-0.35827246,-0.36819902
229,2.289999999999995,-0.30922535,-0.5197864,-0.7624225,-0.040011674,-0.22693644,-0.26908615
230,2.299999999999995,-0.30922535,-0.5197864,-0.7624225,-0.040011674,-0.22693644,-0.26908615
231,2.3099999999999947,-0.30922535,-0.5197864,-0.7624225,-0.040011674,-0.22693644,-0.26908615
232,2.3199999999999945,-0.29867595,-0.5313725,-0.7388236,0.10216721,-0.17821993,-0.15958855
233,2.3299999999999943,-0.29050475,-0.48606494,-0.7558368,0.08659015,-0.09773844,-0.0926988
234,2.339999999999994,-0.2549539,-0.40490165,-0.74919003,0.07391469,-0.03436117,-0.10277808
235,2.349999999999994,-0.2549539,-0.40490165,-0.74919003,0.07391469,-0.03436117,-0.10277808
236,2.3599999999999937,-0.26068595,-0.3899008,-0.7713865,0.056963183,0.08277224,-0.104610674
237,2.3699999999999934,-0.28087005,-0.38331506,-0.80577874,0.06169739,0.10476339,-0.10216721
238,2.3799999999999932,-0.30489585,-0.38794947,-0.8351707,0.089949906,0.08659015,-0.07880162
239,2.389999999999993,-0.30873755,-0.38703477,-0.84303695,0.10476339,0.062308256,-0.06872234
240,2.399999999999993,-0.27928457,-0.39179114,-0.8616966,0.15424347,-0.010537425,-0.05100725
241,2.4099999999999926,-0.24019694,-0.41002396,-0.8591355,0.182496,-0.01282817,-0.06795876
242,2.4199999999999924,-0.21434177,-0.42398816,-0.8557816,0.18112154,0.005497787,-0.079107046
243,2.429999999999992,-0.19793838,-0.4656979,-0.8146207,0.14049901,0.08445212,-0.14569137
244,2.439999999999992,-0.19793838,-0.4656979,-0.8146207,0.14049901,0.08445212,-0.14569137
245,2.4499999999999917,-0.21915914,-0.5008829,-0.8129743,0.1160644,0.09758572,-0.17287487
246,2.4599999999999915,-0.26269826,-0.5469831,-0.8171818,0.082161374,0.0693332,-0.18387043
247,2.4699999999999913,-0.2827604,-0.57094795,-0.8000467,0.06383542,0.03756821,-0.17165314
248,2.479999999999991,-0.31050593,-0.5832657,-0.79626596,0.06154467,-0.00030543262,-0.13240504
249,2.489999999999991,-0.31050593,-0.5832657,-0.79626596,0.06154467,-0.00030543262,-0.13240504
250,2.4999999999999907,-0.2783699,-0.5081394,-0.83389014,0.07544186,0.03176499,-0.038179077
251,2.5099999999999905,-0.2783699,-0.5081394,-0.83389014,0.07544186,0.03176499,-0.038179077
252,2.5199999999999902,-0.2584297,-0.49197996,-0.84071976,0.0627664,0.08170322,-0.03604105
253,2.52999999999999,-0.2374529,-0.5069198,-0.831085,0.06154467,0.08659015,-0.032375857
254,2.53999999999999,-0.23318435,-0.5146642,-0.8197429,0.06154467,0.08659015,-0.032375857
255,2.5499999999999896,-0.22854991,-0.55100775,-0.7695571,0.111941054,0.17608191,0.025045475
256,2.5599999999999894,-0.23531862,-0.53649473,-0.7829725,0.13118331,0.20311269,0.03970624
257,2.569999999999989,-0.24849011,-0.50399286,-0.8063885,0.13713925,0.20799962,0.06414085
258,2.579999999999989,-0.25239277,-0.48941877,-0.8099863,0.13469578,0.20677789,0.070249505
259,2.5899999999999888,-0.25788093,-0.4422209,-0.8262678,0.117438845,0.21517728,0.07880162
260,2.5999999999999885,-0.24977067,-0.41441444,-0.82895076,0.10629055,0.22983804,0.07742717
261,2.6099999999999883,-0.23525764,-0.39526698,-0.8241334,0.091477074,0.23945917,0.07360926
262,2.619999999999988,-0.20879267,-0.4224027,-0.8245603,0.07696902,0.21991149,0.07727446
263,2.629999999999988,-0.20982932,-0.48380873,-0.82864594,0.06627888,0.18432859,0.07238753
264,2.6399999999999877,-0.20543882,-0.56570375,-0.82956064,0.01985312,0.15118915,0.09789115
265,2.6499999999999875,-0.23891638,-0.61216986,-0.8215113,-0.0018325958,0.09605856,0.10048734
266,2.6599999999999873,-0.28013828,-0.53722644,-0.78535074,0.0033597588,0.0571159,0.10797043
267,2.669999999999987,-0.28013828,-0.53722644,-0.78535074,0.058643065,0.029321533,0.101098195
268,2.679999999999987,-0.28013828,-0.53722644,-0.78535074,0.058643065,0.029321533,0.101098195
269,2.6899999999999866,-0.2426361,-0.42526874,-0.89986956,0.08781188,0.078343466,0.087659165
270,2.6999999999999864,-0.2426361,-0.42526874,-0.89986956,0.08781188,0.078343466,0.087659165
271,2.709999999999986,-0.22592781,-0.45539245,-0.8973694,-0.001985312,0.1339322,0.07345655
272,2.719999999999986,-0.21617115,-0.57887524,-0.8251092,-0.082924955,0.14431691,0.07284568
273,2.7299999999999858,-0.21293926,-0.6504648,-0.8090716,-0.0804815,0.113926366,0.109650314
274,2.7399999999999856,-0.21293926,-0.6504648,-0.8090716,-0.0804815,0.113926366,0.109650314
275,2.7499999999999853,-0.21824445,-0.6369274,-0.82736534,-0.053297993,0.07391469,0.13087788
276,2.759999999999985,-0.24214828,-0.5655208,-0.8659651,-0.020005837,0.027641652,0.14462234
277,2.769999999999985,-0.24214828,-0.5655208,-0.8659651,-0.024740042,0.02397646,0.13973543
278,2.7799999999999847,-0.27434528,-0.43502536,-0.84498835,-0.035888333,0.036193766,0.12858713
279,2.7899999999999845,-0.27763817,-0.4077067,-0.8219992,-0.031154128,0.049632803,0.13103059
280,2.7999999999999843,-0.26714975,-0.4007551,-0.80346155,-0.015271631,0.059406646,0.1470658
281,2.809999999999984,-0.2321477,-0.42045137,-0.7818749,-0.015271631,0.059406646,0.1470658
282,2.819999999999984,-0.22324473,-0.43258622,-0.7841311,0.0125227375,0.09758572,0.15683965
283,2.8299999999999836,-0.21062206,-0.46673456,-0.81083995,0.00992656,0.11209377,0.14935656
284,2.8399999999999834,-0.20970736,-0.4867967,-0.84273213,-0.013133603,0.09483683,0.13225232
285,2.849999999999983,-0.21769562,-0.4922848,-0.86858726,-0.04550946,0.0421497,0.098043874
286,2.859999999999983,-0.23800169,-0.49051642,-0.88828355,-0.065973446,0.007788532,0.0759
287,2.869999999999983,-0.2906267,-0.46880785,-0.85401326,-0.10827587,-0.04627304,0.05390886
288,2.8799999999999826,-0.28611428,-0.46673456,-0.8193771,-0.12385293,-0.084146686,0.03924809
289,2.8899999999999824,-0.28080907,-0.4739301,-0.80510795,-0.0954477,-0.094989546,0.02855795
290,2.899999999999982,-0.28080907,-0.4739301,-0.80510795,-0.02855795,-0.03604105,0.016493361
291,2.909999999999982,-0.27538192,-0.4831989,-0.804986,-0.02855795,-0.03604105,0.016493361
292,2.9199999999999817,-0.2631251,-0.48265013,-0.81797457,-0.0022907446,0.037415497,0.038331795
293,2.9299999999999815,-0.25861263,-0.48460147,-0.82669455,0.0061086523,0.05207626,0.055436023
294,2.9399999999999813,-0.25861263,-0.48460147,-0.82669455,0.024281893,0.0693332,0.076358154
295,2.949999999999981,-0.25440508,-0.49100426,-0.85194,0.024281893,0.0693332,0.076358154
296,2.959999999999981,-0.22726935,-0.4972851,-0.8827344,0.047647487,0.036651913,0.087659165
297,2.9699999999999807,-0.22726935,-0.4972851,-0.8827344,0.047647487,0.036651913,0.087659165
298,2.9799999999999804,-0.20037755,-0.48612595,-0.9493847,0.05787948,-0.010995574,0.07315111
299,2.9899999999999802,-0.23714797,-0.42984214,-0.9592023,-0.039095376,-0.16325374,-0.099265605
300,2.99999999999998,-0.26507643,-0.39575478,-0.91511434,-0.07070765,-0.1695151,-0.13133603
301,3.00999999999998,-0.27733323,-0.38349798,-0.86517245,-0.07803804,-0.16966783,-0.1386664
302,3.0199999999999796,-0.2821506,-0.39258388,-0.81736475,-0.05009095,-0.13652839,-0.1301143
303,3.0299999999999794,-0.28367507,-0.41349974,-0.80102235,-0.016187929,-0.09712757,-0.12140947
304,3.039999999999979,-0.28489465,-0.46027076,-0.793156,0.027488936,-0.055436023,-0.10797043
305,3.049999999999979,-0.28763872,-0.4861869,-0.80065644,0.0664316,-0.03191771,-0.10170906
306,3.0599999999999787,-0.29141945,-0.50631005,-0.8462689,0.09682214,-0.008552114,-0.09666943
307,3.0699999999999785,-0.29635876,-0.506493,-0.89017385,0.081855945,0.014660766,-0.07727446
308,3.0799999999999783,-0.2983101,-0.5011268,-0.8946254,0.07819075,0.01695151,-0.07360926
309,3.089999999999978,-0.2587956,-0.47289345,-0.8180965,0.08536842,0.02443461,-0.060170226
310,3.099999999999978,-0.2587956,-0.47289345,-0.8180965,0.11484267,0.020922136,-0.06734789
311,3.1099999999999777,-0.24336785,-0.46203914,-0.8029737,0.16768251,0.02367103,-0.10125092
312,3.1199999999999775,-0.20708527,-0.45600224,-0.82797515,0.16768251,0.02367103,-0.10125092
313,3.1299999999999772,-0.20885365,-0.46923468,-0.84053683,0.14950927,0.022296581,-0.12217305
314,3.139999999999977,-0.21226847,-0.4867357,-0.8271825,-0.018784106,-0.04596761,-0.17058411
315,3.149999999999977,-0.21226847,-0.4867357,-0.8271825,-0.054367006,-0.034055736,-0.17333302
316,3.1599999999999766,-0.25824678,-0.5341775,-0.78175294,-0.054519724,-0.010842858,-0.1685988
317,3.1699999999999764,-0.2830653,-0.55186146,-0.77638674,-0.03023783,0.010079277,-0.15622878
318,3.179999999999976,-0.2830653,-0.55186146,-0.77638674,-0.03023783,0.010079277,-0.15622878
319,3.189999999999976,-0.30050534,-0.5573496,-0.7838262,0.028252518,0.025198191,-0.13515393
320,3.1999999999999758,-0.30050534,-0.5573496,-0.7838262,0.028252518,0.025198191,-0.13515393
321,3.2099999999999755,-0.26251534,-0.45935607,-0.8387685,0.13026701,-0.0022907446,-0.14782938
322,3.2199999999999753,-0.23909931,-0.43734258,-0.8548669,0.12156218,0.0,-0.14553864
323,3.229999999999975,-0.20202398,-0.42831767,-0.8629162,0.086132,0.005955936,-0.15057829
324,3.239999999999975,-0.18055932,-0.43844023,-0.8601112,0.043218717,0.016646078,-0.15943582
325,3.2499999999999747,-0.16586334,-0.46411243,-0.84992766,0.011301007,0.01282817,-0.16584991
326,3.2599999999999745,-0.16964404,-0.49582162,-0.84565914,-0.02031127,0.003970624,-0.17333302
327,3.2699999999999743,-0.19635291,-0.54027545,-0.8322436,-0.053450707,-0.005955936,-0.16615535
328,3.279999999999974,-0.19635291,-0.54027545,-0.8322436,-0.053450707,-0.005955936,-0.16615535
329,3.289999999999974,-0.20367043,-0.5514956,-0.8204747,-0.05955936,-0.008399397,-0.15515977
330,3.2999999999999736,-0.2306232,-0.59979105,-0.7777283,-0.05009095,-0.004581489,-0.11591168
331,3.3099999999999734,-0.2613567,-0.6140602,-0.7666911,-0.027030786,-0.00076358154,-0.0852157
332,3.319999999999973,-0.2613567,-0.6140602,-0.7666911,-0.011148291,-0.01282817,-0.06307184
333,3.329999999999973,-0.23580644,-0.54667825,-0.7774844,0.05024367,-0.06612616,-0.012370021
334,3.3399999999999728,-0.21793956,-0.4978949,-0.79150957,0.051618114,-0.089186326,-0.0036651916
335,3.3499999999999726,-0.20348747,-0.47149092,-0.790229,0.03573562,-0.09789115,-0.0012217305
336,3.3599999999999723,-0.20348747,-0.47149092,-0.790229,0.03573562,-0.09789115,-0.0012217305
337,3.369999999999972,-0.17940071,-0.46051466,-0.7648007,-0.029474247,-0.06414085,-0.004276057
338,3.379999999999972,-0.18818171,-0.4727715,-0.76132494,-0.051618114,-0.04230242,-0.001985312
339,3.3899999999999717,-0.24190436,-0.52381104,-0.7685205,-0.11728613,0.0038179078,0.048716504
340,3.3999999999999715,-0.25971028,-0.57503355,-0.75833696,-0.13958271,0.010995574,0.09636399
341,3.4099999999999713,-0.25971028,-0.57503355,-0.75833696,-0.13958271,0.010995574,0.09636399
342,3.419999999999971,-0.25471,-0.6413789,-0.7838262,-0.14508049,0.0050396384,0.19898935
343,3.429999999999971,-0.24733151,-0.6462572,-0.7885216,-0.1441642,0.00992656,0.23823744
344,3.4399999999999706,-0.23129399,-0.6290611,-0.7934609,-0.13836098,0.01985312,0.2773328
345,3.4499999999999704,-0.23129399,-0.6290611,-0.7934609,-0.13836098,0.01985312,0.2773328
346,3.45999999999997,-0.21763465,-0.60857207,-0.8023639,-0.13836098,0.01985312,0.2773328
347,3.46999999999997,-0.19891405,-0.55210537,-0.857428,-0.16707164,0.047800206,0.35048392
348,3.47999999999997,-0.20379238,-0.5311895,-0.8709045,-0.18906279,0.038026363,0.3491095
349,3.4899999999999696,-0.26702777,-0.4487457,-0.8818197,-0.258396,0.02031127,0.2948952
350,3.4999999999999694,-0.26702777,-0.4487457,-0.8818197,-0.258396,0.02031127,0.2948952
351,3.509999999999969,-0.2742843,-0.41173133,-0.8618796,-0.19807306,-0.021991149,0.2845105
352,3.519999999999969,-0.2742843,-0.41173133,-0.8618796,-0.18310685,-0.03772093,0.27977628
353,3.5299999999999687,-0.26538134,-0.41947567,-0.8724289,-0.1769982,-0.04138612,0.2761111
354,3.5399999999999685,-0.26099083,-0.44490403,-0.9066383,-0.17165314,-0.06093381,0.21991149
355,3.5499999999999683,-0.26099083,-0.44490403,-0.9066383,-0.17165314,-0.06093381,0.21991149
356,3.559999999999968,-0.3017249,-0.4402086,-0.88175875,-0.17470746,-0.089186326,0.16126843
357,3.569999999999968,-0.3081887,-0.4173414,-0.87627065,-0.14889841,-0.08659015,0.14431691
358,3.5799999999999677,-0.30288354,-0.4027064,-0.8837101,-0.1330159,-0.08170322,0.12736541
359,3.5899999999999674,-0.29495624,-0.39294976,-0.9046869,-0.12782355,-0.08536842,0.10170906
360,3.5999999999999672,-0.2845288,-0.39002275,-0.9231636,-0.14966199,-0.09896017,0.063682705
361,3.609999999999967,-0.27861384,-0.39734024,-0.92541987,-0.17852537,-0.11866058,0.021991149
362,3.619999999999967,-0.28788266,-0.4246589,-0.9091384,-0.2133447,-0.16172658,-0.05757405
363,3.6299999999999666,-0.29227313,-0.4344156,-0.90413815,-0.21303925,-0.1826487,-0.08200866
364,3.6399999999999664,-0.3093473,-0.4476481,-0.89444244,-0.19929479,-0.20448714,-0.105068825
365,3.649999999999966,-0.32093337,-0.45258737,-0.89986956,-0.19929479,-0.20448714,-0.105068825
366,3.659999999999966,-0.31989673,-0.45697787,-0.9090165,-0.16584991,-0.2312125,-0.12064589
367,3.6699999999999657,-0.31446958,-0.45795357,-0.91529727,-0.12140947,-0.22968534,-0.17547104
368,3.6799999999999655,-0.3153233,-0.43691576,-0.8868201,-0.113926366,-0.23090707,-0.20234911
369,3.6899999999999653,-0.3153233,-0.43691576,-0.8868201,-0.113926366,-0.23090707,-0.20234911
370,3.699999999999965,-0.32123825,-0.41490227,-0.84523225,-0.0954477,-0.2406809,-0.21563543
371,3.709999999999965,-0.32123825,-0.41490227,-0.84523225,-0.061086524,-0.2501493,-0.21533
372,3.7199999999999647,-0.30672523,-0.41526812,-0.8348658,0.0047342055,-0.22525656,-0.19547687
373,3.7299999999999645,-0.29532212,-0.424476,-0.84681773,0.03145956,-0.19211712,-0.18432859
374,3.7399999999999642,-0.29532212,-0.424476,-0.84681773,0.03145956,-0.19211712,-0.18432859
375,3.749999999999964,-0.29965162,-0.45905116,-0.8327925,0.0061086523,-0.11178834,-0.1554652
376,3.759999999999964,-0.3017249,-0.46728337,-0.81663305,0.013439035,-0.10797043,-0.14935656
377,3.7699999999999636,-0.2950172,-0.46331972,-0.807852,0.013439035,-0.10797043,-0.14935656
378,3.7799999999999634,-0.2950172,-0.46331972,-0.807852,0.049021937,-0.12492194,-0.14172074
379,3.789999999999963,-0.2842849,-0.41075566,-0.84053683,0.06994407,-0.12599096,-0.1525636
380,3.799999999999963,-0.2847727,-0.3878885,-0.85108626,0.046578474,-0.10293079,-0.17608191
381,3.8099999999999627,-0.29861498,-0.3738023,-0.84114665,0.03191771,-0.088422745,-0.18845193
382,3.8199999999999625,-0.2950172,-0.36343583,-0.8183404,0.03176499,-0.0786489,-0.18845193
383,3.8299999999999623,-0.29263905,-0.37361938,-0.80212,0.04642576,-0.061391957,-0.18478674
384,3.839999999999962,-0.29251707,-0.3960597,-0.7993759,0.06078109,-0.04917465,-0.16523905
385,3.849999999999962,-0.29306588,-0.4077067,-0.7899851,0.055741455,-0.032070424,-0.15057829
386,3.8599999999999617,-0.2853825,-0.43874508,-0.7607761,0.08827003,0.031612277,-0.1470658
387,3.8699999999999615,-0.2853825,-0.43874508,-0.7607761,0.08827003,0.031612277,-0.1470658
388,3.8799999999999613,-0.29013887,-0.45191658,-0.76065415,0.11362094,0.064751714,-0.13103059
389,3.889999999999961,-0.28757775,-0.5207011,-0.7851068,0.18173242,0.20326541,-0.01985312
390,3.899999999999961,-0.28757775,-0.5207011,-0.7851068,0.18173242,0.20326541,-0.01985312
391,3.9099999999999606,-0.27672347,-0.5308846,-0.790229,0.20830505,0.21685717,0.021838432
392,3.9199999999999604,-0.25769794,-0.5293601,-0.7901071,0.27412578,0.24174993,0.05757405
393,3.92999999999996,-0.25769794,-0.5293601,-0.7901071,0.30925053,0.28115073,0.0870483
394,3.93999999999996,-0.2646496,-0.53289694,-0.8290728,0.30925053,0.28115073,0.0870483
395,3.9499999999999598,-0.25007555,-0.4982608,-0.8454762,0.29260445,0.30925053,0.15897769
396,3.9599999999999596,-0.2239155,-0.47466183,-0.8376099,0.2938262,0.29703322,0.1797471
397,3.9699999999999593,-0.20251182,-0.46972254,-0.84291506,0.302531,0.27152961,0.17745635
398,3.979999999999959,-0.19574313,-0.46051466,-0.88925916,0.29840767,0.19456059,0.15210545
399,3.989999999999959,-0.1999507,-0.4489896,-0.91718763,0.27320948,0.15042557,0.122783914
400,3.9999999999999587,-0.1999507,-0.4489896,-0.91718763,0.27320948,0.15042557,0.122783914
401,4.009999999999959,-0.2239155,-0.43447655,-0.913224,0.18585575,0.11056661,0.04046982
402,4.019999999999959,-0.22373258,-0.456612,-0.82035273,0.101556346,0.11484267,-0.013897184
403,4.0299999999999585,-0.22373258,-0.456612,-0.82035273,0.101556346,0.11484267,-0.013897184
404,4.039999999999958,-0.24166043,-0.520945,-0.7959001,0.065973446,0.11835514,-0.0154243475
405,4.049999999999958,-0.2579419,-0.57564336,-0.7904729,0.035430185,0.10842858,0.010079277
406,4.059999999999958,-0.2720281,-0.6141822,-0.77358174,0.004886922,0.07284568,0.027183503
407,4.069999999999958,-0.28898028,-0.59174186,-0.7496779,0.044593163,0.0035124752,0.0290161
408,4.079999999999957,-0.28898028,-0.59174186,-0.7496779,0.044593163,0.0035124752,0.0290161
409,4.089999999999957,-0.260503,-0.47472283,-0.7868752,0.08735373,0.025809057,0.021838432
410,4.099999999999957,-0.24123359,-0.43032995,-0.7945585,0.071318515,0.04153884,0.009468411
411,4.109999999999957,-0.23836756,-0.42392716,-0.7912047,0.071318515,0.04153884,0.009468411
412,4.119999999999957,-0.24159946,-0.46002686,-0.7858995,0.029626964,0.081397794,-0.026419923
413,4.129999999999956,-0.24531919,-0.48393068,-0.7934609,0.017256944,0.09239337,-0.021685716
414,4.139999999999956,-0.26092985,-0.57387495,-0.8373049,-0.041691553,0.071318515,0.02076942
415,4.149999999999956,-0.2687352,-0.5933273,-0.8240115,-0.06337727,0.015118915,0.045356743
416,4.159999999999956,-0.27769914,-0.5933273,-0.8041323,-0.04352415,-0.03726278,0.06169739
417,4.1699999999999555,-0.29404154,-0.5471661,-0.80535185,0.0154243475,-0.06246097,0.068264194
418,4.179999999999955,-0.2883705,-0.47167388,-0.8330364,0.077579886,-0.020616703,0.065973446
419,4.189999999999955,-0.27330863,-0.41514617,-0.8632821,0.10293079,0.046731193,0.056046885
420,4.199999999999955,-0.24135554,-0.3989867,-0.8972475,0.091477074,0.10522154,0.04352415
421,4.209999999999955,-0.2014142,-0.4358181,-0.9246881,0.029168816,0.1133155,0.01985312
422,4.2199999999999545,-0.1975725,-0.50795645,-0.9252369,-0.052534413,0.06627888,0.0
423,4.229999999999954,-0.22184221,-0.59521765,-0.8824905,-0.076816306,0.042913284,-0.0025961774
424,4.239999999999954,-0.22184221,-0.59521765,-0.8824905,-0.11911872,-0.02565634,0.0012217305
425,4.249999999999954,-0.23757485,-0.59472984,-0.86608714,-0.11652254,-0.052534413,0.002443461
426,4.259999999999954,-0.24470939,-0.56795996,-0.85383034,-0.08552113,-0.0888809,-0.011759156
427,4.269999999999953,-0.25355136,-0.48173544,-0.8457201,-0.087964594,-0.087659165,-0.016798794
428,4.279999999999953,-0.24538018,-0.47045428,-0.84187835,-0.10873401,-0.0804815,-0.027947085
429,4.289999999999953,-0.24214828,-0.46697846,-0.8243164,-0.15042557,-0.06856962,-0.046578474
430,4.299999999999953,-0.2619665,-0.47039333,-0.79132664,-0.15042557,-0.06856962,-0.046578474
431,4.3099999999999525,-0.28751677,-0.47435695,-0.7657154,-0.16035213,-0.04062254,-0.054061573
432,4.319999999999952,-0.2992248,-0.47685713,-0.76528853,-0.13607024,-0.028252518,-0.04046982
433,4.329999999999952,-0.3023957,-0.47112507,-0.79224133,-0.05299256,-0.02397646,-0.004581489
434,4.339999999999952,-0.29135844,-0.471186,-0.8227919,-0.020005837,-0.03359759,0.01038471
435,4.349999999999952,-0.2771503,-0.46478322,-0.8349268,-0.00290161,-0.02855795,0.0154243475
436,4.3599999999999515,-0.27080846,-0.46472222,-0.8348658,0.00290161,0.014202617,0.021380283
437,4.369999999999951,-0.26507643,-0.4671004,-0.8221212,0.0062613687,0.044745877,0.02611449
438,4.379999999999951,-0.22092752,-0.4978949,-0.7866922,0.028099801,0.0693332,0.039553523
439,4.389999999999951,-0.22092752,-0.4978949,-0.7866922,0.03924809,0.04016439,0.06795876
440,4.399999999999951,-0.20751211,-0.49887055,-0.82010883,0.03924809,0.04016439,0.06795876
441,4.40999999999995,-0.20751211,-0.49887055,-0.82010883,0.03924809,0.04016439,0.06795876
442,4.41999999999995,-0.20751211,-0.49887055,-0.82010883,-0.04184427,-0.069027774,0.03359759
443,4.42999999999995,-0.26032007,-0.4552095,-0.9201756,-0.14401148,-0.13927728,-0.0070249503
444,4.43999999999995,-0.26032007,-0.4552095,-0.9201756,-0.14401148,-0.13927728,-0.0070249503
445,4.4499999999999496,-0.2602591,-0.48990667,-0.8013272,-0.123547494,-0.09636399,0.00992656
446,4.459999999999949,-0.24434352,-0.5155179,-0.7701669,-0.088422745,-0.064446285,0.028405234
447,4.469999999999949,-0.22861089,-0.5441781,-0.7666911,-0.044593163,-0.026267206,0.040775254
448,4.479999999999949,-0.21903718,-0.55344695,-0.7923023,-0.025045475,-0.027488936,0.03970624
449,4.489999999999949,-0.22074458,-0.55015403,-0.822609,-0.033292156,-0.053145275,0.026267206
450,4.4999999999999485,-0.24720955,-0.5290553,-0.87041664,-0.071013086,-0.08032878,-0.00076358154
451,4.509999999999948,-0.28708994,-0.49960235,-0.8940765,-0.071013086,-0.08032878,-0.00076358154
452,4.519999999999948,-0.28708994,-0.49960235,-0.8940765,-0.18570304,-0.10064005,-0.038179077
453,4.529999999999948,-0.35319135,-0.4276469,-0.81077904,-0.16997325,-0.089491755,-0.022143865
454,4.539999999999948,-0.3485569,-0.42459795,-0.78791183,-0.12843442,-0.07819075,-0.009773844
455,4.549999999999947,-0.31831124,-0.42734203,-0.78608245,-0.03436117,-0.07513642,0.0154243475
456,4.559999999999947,-0.28147984,-0.42575654,-0.81791353,0.021991149,-0.07345655,0.025503624
457,4.569999999999947,-0.24306297,-0.41398758,-0.8639529,0.04046982,-0.0759,0.0036651916
458,4.579999999999947,-0.23074517,-0.40032822,-0.8879177,0.024892759,-0.08093964,-0.045356743
459,4.589999999999947,-0.23202574,-0.3901447,-0.9084677,0.004276057,-0.08109236,-0.088422745
460,4.599999999999946,-0.24123359,-0.38392484,-0.9164559,-0.041996986,-0.087659165,-0.13637567
461,4.609999999999946,-0.24964872,-0.38246134,-0.90730906,-0.07345655,-0.10125092,-0.16462818
462,4.619999999999946,-0.27141827,-0.3931937,-0.8679165,-0.122020334,-0.13347405,-0.21746802
463,4.629999999999946,-0.28123593,-0.40295035,-0.85572064,-0.104610674,-0.12599096,-0.24663684
464,4.6399999999999455,-0.3363001,-0.4724056,-0.8169379,-0.104610674,-0.12599096,-0.24663684
465,4.649999999999945,-0.3363001,-0.4724056,-0.8169379,-0.06688975,-0.10629055,-0.23793201
466,4.659999999999945,-0.34983748,-0.4875894,-0.8144378,-0.019394971,-0.09010262,-0.22434026
467,4.669999999999945,-0.3134939,-0.49960235,-0.8353536,0.07849618,-0.11010846,-0.1685988
468,4.679999999999945,-0.3134939,-0.49960235,-0.8353536,0.07849618,-0.11010846,-0.1685988
469,4.689999999999944,-0.2720281,-0.4969192,-0.84474444,0.08536842,-0.052687127,-0.17486018
470,4.699999999999944,-0.2720281,-0.4969192,-0.84474444,0.08536842,-0.052687127,-0.17486018
471,4.709999999999944,-0.2748331,-0.5008829,-0.85444015,0.067500606,0.05100725,-0.17654006
472,4.719999999999944,-0.29056573,-0.51698136,-0.8310241,0.052687127,0.055741455,-0.15958855
473,4.729999999999944,-0.30007848,-0.51990837,-0.80279076,0.062308256,0.053450707,-0.13622294
474,4.739999999999943,-0.29013887,-0.51679844,-0.7715694,0.100029185,0.059864793,-0.09697486
475,4.749999999999943,-0.27080846,-0.51271284,-0.76022726,0.13775012,0.076052725,-0.063682705
476,4.759999999999943,-0.23086715,-0.50905406,-0.7569344,0.17516561,0.11285736,-0.02443461
477,4.769999999999943,-0.21117085,-0.5202133,-0.77364266,0.19456059,0.13255776,-0.010995574
478,4.7799999999999425,-0.19927992,-0.5281406,-0.83870745,0.1919644,0.13622294,0.0
479,4.789999999999942,-0.20208496,-0.5116762,-0.85700125,0.13958271,0.10293079,0.0047342055
480,4.799999999999942,-0.21025616,-0.48386967,-0.8374269,0.098043874,0.08552113,-0.00030543262
481,4.809999999999942,-0.22922069,-0.46392953,-0.80669343,0.07849618,0.08552113,-0.0016798794
482,4.819999999999942,-0.23531862,-0.4545997,-0.78541166,0.0795652,0.09162979,0.006872234
483,4.8299999999999415,-0.19909698,-0.44648945,-0.75345856,0.09896017,0.09789115,0.038789943
484,4.839999999999941,-0.19909698,-0.44648945,-0.75345856,0.098807454,0.094225965,0.053450707
485,4.849999999999941,-0.18976717,-0.5127738,-0.7686424,0.076816306,0.07696902,0.06918049
486,4.859999999999941,-0.18976717,-0.5127738,-0.7686424,0.047494773,0.062155537,0.08017606
487,4.869999999999941,-0.19732858,-0.5459465,-0.77565503,0.023060163,0.049938235,0.09101892
488,4.87999999999994,-0.24690464,-0.6102185,-0.80309564,-0.027030786,0.025198191,0.09697486
489,4.88999999999994,-0.24690464,-0.6102185,-0.80309564,-0.027030786,0.025198191,0.09697486
490,4.89999999999994,-0.24690464,-0.6102185,-0.80309564,-0.0795652,-0.02275473,0.1432479
491,4.90999999999994,-0.24635585,-0.5497272,-0.7941317,-0.056352317,0.009162978,0.10781772
492,4.9199999999999395,-0.2367821,-0.5170424,-0.7944366,-0.083383106,-0.04337143,0.1910481
493,4.929999999999939,-0.22611076,-0.49948034,-0.8037664,-0.09208794,-0.0421497,0.20815234
494,4.939999999999939,-0.21470766,-0.4941142,-0.82712144,-0.09208794,-0.0421497,0.20815234
495,4.949999999999939,-0.21665898,-0.4952118,-0.8699898,-0.14462234,-0.062002823,0.21151209
496,4.959999999999939,-0.22178122,-0.5016756,-0.8924301,-0.17379116,-0.07696902,0.20280726
497,4.9699999999999385,-0.23403804,-0.52375007,-0.9195659,-0.24694228,-0.12018774,0.17806722
498,4.979999999999938,-0.26239336,-0.52637213,-0.9115166,-0.29779682,-0.1656972,0.15225816
499,4.989999999999938,-0.28989497,-0.5225305,-0.89328384,-0.30726522,-0.20479257,0.14019357
500,4.999999999999938,-0.31416467,-0.51137125,-0.8639529,-0.28985557,-0.23640485,0.1330159
501,5.009999999999938,-0.3325194,-0.4972851,-0.83754885,-0.27015516,-0.24358252,0.13194689
502,5.019999999999937,-0.33410487,-0.47679612,-0.834378,-0.22006421,-0.2237294,0.13469578
503,5.029999999999937,-0.33410487,-0.47679612,-0.834378,-0.20555615,-0.20295998,0.13469578
504,5.039999999999937,-0.3272752,-0.45831943,-0.85157406,-0.1863139,-0.15286903,0.11988231
505,5.049999999999937,-0.33203158,-0.44862375,-0.86736774,-0.18280143,-0.11255192,0.09773844
506,5.0599999999999365,-0.33440974,-0.44429418,-0.87816095,-0.18402316,-0.093004234,0.0804815
507,5.069999999999936,-0.33440974,-0.44429418,-0.87816095,-0.19746219,-0.07360926,0.048563786
508,5.079999999999936,-0.35514265,-0.44740415,-0.898772,-0.21197024,-0.0786489,0.019089539
509,5.089999999999936,-0.35441092,-0.44978234,-0.8680384,-0.20082195,-0.087201014,0.013133603
510,5.099999999999936,-0.3427639,-0.4545387,-0.8615137,-0.20082195,-0.087201014,0.013133603
511,5.1099999999999355,-0.3280679,-0.45789257,-0.8657212,-0.182496,-0.08582657,0.0071776668
512,5.119999999999935,-0.32471406,-0.45301422,-0.86724573,-0.15683965,-0.05757405,-0.018478673
513,5.129999999999935,-0.32965338,-0.43404973,-0.8718801,-0.14569137,-0.03680463,-0.04428773
514,5.139999999999935,-0.3316657,-0.41599986,-0.8730997,-0.12980886,-0.018478673,-0.06261369
515,5.149999999999935,-0.3298363,-0.3999014,-0.87133133,-0.112704635,-0.009773844,-0.07467828
516,5.159999999999934,-0.31867713,-0.3852054,-0.8733436,-0.07086037,-0.008399397,-0.1001819
517,5.169999999999934,-0.30739596,-0.38471758,-0.8824905,-0.049938235,-0.015577064,-0.11102476
518,5.179999999999934,-0.2970905,-0.38612008,-0.88968605,-0.041233405,-0.019242255,-0.12568553
519,5.189999999999934,-0.28879735,-0.40843847,-0.8727948,-0.03756821,-0.018020526,-0.12797627
520,5.199999999999934,-0.28446782,-0.42740297,-0.8607819,-0.022907447,-0.016646078,-0.12308934
521,5.209999999999933,-0.27965048,-0.44923353,-0.84242725,0.023518313,-0.02733622,-0.09086621
522,5.219999999999933,-0.27580878,-0.45161173,-0.8336462,0.04062254,-0.03940081,-0.07727446
523,5.229999999999933,-0.2464778,-0.43624496,-0.8003516,0.10323623,-0.07803804,-0.05589417
524,5.239999999999933,-0.2464778,-0.43624496,-0.8003516,0.10323623,-0.07803804,-0.05589417
525,5.2499999999999325,-0.24775836,-0.42801276,-0.8229139,0.093462385,-0.06963864,-0.07192938
526,5.259999999999932,-0.27007675,-0.3902667,-0.8587086,-0.027183503,-0.09728029,-0.12034045
527,5.269999999999932,-0.27007675,-0.3902667,-0.8587086,-0.027183503,-0.09728029,-0.12034045
528,5.279999999999932,-0.30379823,-0.37679026,-0.85675734,-0.047647487,-0.13041973,-0.13744467
529,5.289999999999932,-0.33160472,-0.3784367,-0.85017157,-0.04016439,-0.15592335,-0.1421789
530,5.299999999999931,-0.3322145,-0.39203507,-0.8334633,0.01572978,-0.11407909,-0.11759156
531,5.309999999999931,-0.3322145,-0.39203507,-0.8334633,0.04841107,-0.07849618,-0.10399981
532,5.319999999999931,-0.27178416,-0.40868238,-0.8219382,0.04841107,-0.07849618,-0.10399981
533,5.329999999999931,-0.25519782,-0.42215878,-0.8147426,0.089491755,0.01817324,-0.11881329
534,5.339999999999931,-0.27904066,-0.4364279,-0.8075471,0.09056077,0.049938235,-0.13973543
535,5.34999999999993,-0.29995653,-0.45606318,-0.8055348,0.08200866,0.056046885,-0.13988814
536,5.35999999999993,-0.31733558,-0.468381,-0.8113888,0.065973446,0.05467244,-0.13255776
537,5.36999999999993,-0.31733558,-0.468381,-0.8113888,0.065973446,0.05467244,-0.13255776
538,5.37999999999993,-0.31733558,-0.468381,-0.8113888,0.065973446,0.05467244,-0.13255776
539,5.3899999999999295,-0.31733558,-0.468381,-0.8113888,0.065973446,0.05467244,-0.13255776
540,5.399999999999929,-0.30831066,-0.4803939,-0.77998453,0.05497787,0.11453723,-0.014202617
541,5.409999999999929,-0.28959006,-0.4973461,-0.7941927,0.07437284,0.14034629,-0.006872234
542,5.419999999999929,-0.27404037,-0.50570023,-0.8319388,0.11438452,0.17241672,0.014049901
543,5.429999999999929,-0.26794246,-0.50283426,-0.8601721,0.13790283,0.13836098,0.027794369
544,5.4399999999999284,-0.26056397,-0.49502888,-0.8704776,0.1441642,0.110413894,0.031612277
545,5.449999999999928,-0.24111164,-0.46472222,-0.8823075,0.13347405,0.067500606,0.02565634
546,5.459999999999928,-0.23202574,-0.43978173,-0.8786488,0.11789699,0.050396383,0.0096211275
547,5.469999999999928,-0.25763696,-0.43258622,-0.8604771,0.063224554,0.0096211275,-0.028405234
548,5.479999999999928,-0.25763696,-0.43258622,-0.8604771,0.02687807,-0.0065668016,-0.0627664
549,5.489999999999927,-0.34087354,-0.45142877,-0.807974,0.064446285,0.023060163,-0.0346666
550,5.499999999999927,-0.33501956,-0.48204032,-0.79193646,0.10064005,0.061239243,-0.00030543262
551,5.509999999999927,-0.29635876,-0.5158838,-0.78724104,0.16462818,0.150731,0.051159963
552,5.519999999999927,-0.26458862,-0.5283845,-0.7882167,0.20326541,0.20357084,0.07192938
553,5.5299999999999265,-0.24641682,-0.52149385,-0.8022419,0.21639901,0.22800545,0.09025534
554,5.539999999999926,-0.25220984,-0.5084443,-0.81608415,0.20937407,0.20357084,0.089186326
555,5.549999999999926,-0.26629603,-0.5046636,-0.8269995,0.1863139,0.15958855,0.1001819
556,5.559999999999926,-0.27330863,-0.50429773,-0.8568183,0.16294831,0.14966199,0.12339478
557,5.569999999999926,-0.25269768,-0.5100907,-0.86822134,0.13087788,0.16050485,0.15851954
558,5.5799999999999255,-0.21043912,-0.50923705,-0.85273266,0.11362094,0.16157386,0.16707164
559,5.589999999999925,-0.21043912,-0.50923705,-0.85273266,0.11362094,0.16157386,0.16707164
560,5.599999999999925,-0.20147517,-0.47606438,-0.8442565,0.089949906,0.07971791,0.129198
561,5.609999999999925,-0.24056281,-0.44703826,-0.8479153,0.061086524,0.037873644,0.0852157
562,5.619999999999925,-0.26208845,-0.43404973,-0.8507814,0.044135015,0.031612277,0.06918049
563,5.629999999999924,-0.28208962,-0.42782986,-0.85200095,0.0062613687,0.0290161,0.06536258
564,5.639999999999924,-0.2689791,-0.4656979,-0.8251092,-0.034208454,0.007941248,0.08475755
565,5.649999999999924,-0.25769794,-0.51472515,-0.79949784,-0.044135015,0.005497787,0.10430524
566,5.659999999999924,-0.25769794,-0.51472515,-0.79949784,-0.044135015,0.005497787,0.10430524
567,5.6699999999999235,-0.2642227,-0.5508858,-0.81083995,-0.02107485,0.032528576,0.11652254
568,5.679999999999923,-0.26123476,-0.5407023,-0.8245603,0.011759156,0.05222898,0.13255776
569,5.689999999999923,-0.26123476,-0.5407023,-0.8245603,0.011759156,0.05222898,0.13255776
570,5.699999999999923,-0.26861322,-0.49252874,-0.8471836,0.0035124752,0.016798794,0.11682798
571,5.709999999999923,-0.26477155,-0.47643024,-0.8473056,-0.008552114,0.0070249503,0.115453534
572,5.7199999999999225,-0.25044146,-0.45581928,-0.83236563,-0.0355829,0.008093964,0.11652254
573,5.729999999999922,-0.23647723,-0.4483798,-0.8215723,-0.045356743,0.014049901,0.111635625
574,5.739999999999922,-0.23647723,-0.4483798,-0.8215723,-0.05131268,0.01038471,0.09193522
575,5.749999999999922,-0.2619665,-0.4555144,-0.85194,-0.06093381,-0.008093964,0.076052725
576,5.759999999999922,-0.27647954,-0.45173368,-0.8613918,-0.071776666,-0.02397646,0.0711658
577,5.769999999999921,-0.29806617,-0.4435015,-0.8515131,-0.09605856,-0.05467244,0.06627888
578,5.779999999999921,-0.29977357,-0.44100136,-0.8305972,-0.09712757,-0.0852157,0.07009678
579,5.789999999999921,-0.29977357,-0.44100136,-0.8305972,-0.08353582,-0.0936151,0.06887506
580,5.799999999999921,-0.283919,-0.44472107,-0.8035835,-0.08353582,-0.0936151,0.06887506
581,5.809999999999921,-0.29056573,-0.47594243,-0.80279076,-0.06765333,-0.066737026,0.037110064
582,5.81999999999992,-0.29056573,-0.47594243,-0.80279076,-0.08368854,-0.027794369,0.023365596
583,5.82999999999992,-0.32245782,-0.49472398,-0.8199259,-0.10842858,-0.0022907446,0.02076942
584,5.83999999999992,-0.32245782,-0.49472398,-0.8199259,-0.112399206,0.019700404,0.04505131
585,5.84999999999992,-0.32245782,-0.49472398,-0.8199259,-0.112399206,0.019700404,0.04505131
586,5.8599999999999195,-0.36550912,-0.5041757,-0.8016931,-0.112399206,0.019700404,0.04505131
587,5.869999999999919,-0.3052617,-0.4630758,-0.85181797,0.094531395,0.09560041,0.1572978
588,5.879999999999919,-0.3052617,-0.4630758,-0.85181797,0.16646078,0.1375974,0.17104226
589,5.889999999999919,-0.2795895,-0.450819,-0.89212525,0.18829921,0.16447547,0.16264287
590,5.899999999999919,-0.2795895,-0.450819,-0.89212525,0.18829921,0.16447547,0.16264287
591,5.909999999999918,-0.25190493,-0.43575716,-0.94176227,0.14110987,0.1348485,0.1049161
592,5.919999999999918,-0.24166043,-0.42984214,-0.9499944,-0.012980887,0.020158553,0.010231993
593,5.929999999999918,-0.2619665,-0.44301364,-0.9081627,-0.053297993,0.023518313,-0.0096211275
594,5.939999999999918,-0.27885774,-0.4619782,-0.86566025,-0.049938235,0.056505036,-0.010995574
595,5.949999999999918,-0.28715092,-0.47466183,-0.85340345,-0.034055736,0.06887506,-0.007330383
596,5.959999999999917,-0.28922418,-0.48630884,-0.8328535,0.006414085,0.053297993,0.0016798794
597,5.969999999999917,-0.28885832,-0.4852722,-0.8230968,0.048258353,0.024281893,-0.00290161
598,5.979999999999917,-0.2859923,-0.47795472,-0.8241334,0.071776666,0.013439035,-0.0125227375
599,5.989999999999917,-0.28446782,-0.45850238,-0.837061,0.10125092,0.012370021,-0.028252518
600,5.9999999999999165,-0.27727225,-0.44191605,-0.84059787,0.09254608,0.028099801,-0.022143865
601,6.009999999999916,-0.27727225,-0.44191605,-0.84059787,0.046731193,0.057268616,0.005497787
602,6.019999999999916,-0.2506244,-0.45466065,-0.76266646,0.0036651916,0.07162395,0.027183503
603,6.029999999999916,-0.25227082,-0.45801452,-0.74120176,0.0036651916,0.07162395,0.027183503
604,6.039999999999916,-0.25227082,-0.45801452,-0.74120176,0.057421334,0.09025534,0.031154128
605,6.0499999999999154,-0.25306356,-0.45953903,-0.7582759,0.1160644,0.10277808,0.03145956
606,6.059999999999915,-0.24580702,-0.44892865,-0.81388897,0.14477506,0.043066,0.013439035
607,6.069999999999915,-0.2359284,-0.41356072,-0.8965767,0.07192938,-0.014660766,-0.0025961774
608,6.079999999999915,-0.24519724,-0.406792,-0.8966987,-0.0071776668,-0.06887506,-0.021227567
609,6.089999999999915,-0.24519724,-0.406792,-0.8966987,-0.0071776668,-0.06887506,-0.021227567
610,6.099999999999914,-0.25897855,-0.42130506,-0.8294386,-0.10445796,-0.14034629,-0.06429356
611,6.109999999999914,-0.26147866,-0.42953727,-0.81815743,-0.09819659,-0.14401148,-0.081397794
612,6.119999999999914,-0.28123593,-0.45600224,-0.82096255,-0.07849618,-0.13545936,-0.11071932
613,6.129999999999914,-0.2970905,-0.46929568,-0.8394393,-0.06734789,-0.13041973,-0.13148874
614,6.1399999999999135,-0.2970905,-0.46929568,-0.8394393,-0.06734789,-0.13041973,-0.13148874
615,6.149999999999913,-0.31142062,-0.47728392,-0.8614527,-0.076816306,-0.16600263,-0.15454891
616,6.159999999999913,-0.33026317,-0.46966153,-0.8831613,-0.094989546,-0.18921551,-0.15088372
617,6.169999999999913,-0.3077009,-0.46161228,-0.8566963,-0.1133155,-0.1966986,-0.14859296
618,6.179999999999913,-0.27086946,-0.46521008,-0.83096313,-0.123242065,-0.17730364,-0.15851954
619,6.1899999999999125,-0.24702659,-0.46649066,-0.8238895,-0.12568553,-0.14676037,-0.17821993
620,6.199999999999912,-0.2376968,-0.46551496,-0.83065826,-0.13942999,-0.10293079,-0.21273382
621,6.209999999999912,-0.28294334,-0.46972254,-0.8383416,-0.15409076,-0.08353582,-0.22632557
622,6.219999999999912,-0.28294334,-0.46972254,-0.8383416,-0.17745635,-0.054519724,-0.24862215
623,6.229999999999912,-0.3545329,-0.5013097,-0.8240725,-0.1788308,-0.036193766,-0.24388795
624,6.239999999999911,-0.36160645,-0.50807846,-0.79919297,-0.14645495,-0.018784106,-0.16539176
625,6.249999999999911,-0.36276507,-0.5109445,-0.7748013,-0.11362094,-0.0062613687,-0.13225232
626,6.259999999999911,-0.32910457,-0.50716376,-0.7311402,-0.017562376,0.02977968,-0.06566802
627,6.269999999999911,-0.29849303,-0.4952728,-0.7309573,0.063988134,0.06704246,-0.026267206
628,6.2799999999999105,-0.2681254,-0.4795402,-0.75473917,0.107665,0.10644327,-0.00290161
629,6.28999999999991,-0.25080732,-0.47082013,-0.78535074,0.123242065,0.1479821,0.014202617
630,6.29999999999991,-0.25080732,-0.47082013,-0.78535074,0.123242065,0.1479821,0.014202617
631,6.30999999999991,-0.22989148,-0.47228366,-0.82998747,0.11927144,0.17608191,0.027488936
632,6.31999999999991,-0.22989148,-0.47228366,-0.82998747,0.04886922,0.18310685,0.113926366
633,6.3299999999999095,-0.22989148,-0.47228366,-0.82998747,0.04886922,0.18310685,0.113926366
634,6.339999999999909,-0.22074458,-0.49746805,-0.80279076,0.04886922,0.18310685,0.113926366
635,6.349999999999909,-0.2280621,-0.50478554,-0.7949854,0.00580322,0.14263703,0.19211712
636,6.359999999999909,-0.24781933,-0.526921,-0.8065714,0.009162978,0.15012014,0.22632557
637,6.369999999999909,-0.25440508,-0.5338116,-0.82901174,0.0067195175,0.14278975,0.25442538
638,6.379999999999908,-0.24891695,-0.52990896,-0.8396832,0.01160644,0.11957687,0.27290404
639,6.389999999999908,-0.24745347,-0.5172863,-0.85200095,0.027641652,0.096516706,0.27931812
640,6.399999999999908,-0.24111164,-0.49002862,-0.869319,0.049632803,0.090713486,0.30268374
641,6.409999999999908,-0.21184163,-0.47722298,-0.8804172,0.053297993,0.09560041,0.31612277
642,6.419999999999908,-0.21184163,-0.47722298,-0.8804172,0.041996986,0.107665,0.33200526
643,6.429999999999907,-0.19519432,-0.46350268,-0.8935887,0.0041233404,0.095294975,0.3268129
644,6.439999999999907,-0.19330397,-0.45472166,-0.89560103,-0.038331795,0.06078109,0.30100384
645,6.449999999999907,-0.22818404,-0.41837808,-0.89005196,-0.038331795,0.06078109,0.30100384
646,6.459999999999907,-0.23989205,-0.41502422,-0.88925916,-0.15699236,-0.04016439,0.19303341
647,6.4699999999999065,-0.26702777,-0.41520718,-0.90462595,-0.19150625,-0.116217114,0.13927728
648,6.479999999999906,-0.26702777,-0.41520718,-0.90462595,-0.20937407,-0.17134771,0.10399981
649,6.489999999999906,-0.2819067,-0.42661023,-0.91828525,-0.20937407,-0.17134771,0.10399981
650,6.499999999999906,-0.3228847,-0.4540509,-0.90035737,-0.24022275,-0.2350304,0.03680463
651,6.509999999999906,-0.34794715,-0.46581987,-0.872185,-0.24022275,-0.2350304,0.03680463
652,6.519999999999905,-0.36928985,-0.4610025,-0.83980507,-0.20937407,-0.23487769,-0.01695151
653,6.529999999999905,-0.3728876,-0.45118487,-0.8258409,-0.17379116,-0.22495113,-0.025350908
654,6.539999999999905,-0.3728876,-0.45118487,-0.8258409,-0.13713925,-0.20769419,-0.03863723
655,6.549999999999905,-0.36843613,-0.436123,-0.84206134,-0.13713925,-0.20769419,-0.03863723
656,6.559999999999905,-0.37508285,-0.42892745,-0.8631601,-0.11056661,-0.13805555,-0.071776666
657,6.569999999999904,-0.3752658,-0.42807376,-0.89096665,-0.11438452,-0.09407325,-0.08659015
658,6.579999999999904,-0.3752658,-0.42807376,-0.89096665,-0.11438452,-0.09407325,-0.08659015
659,6.589999999999904,-0.33709285,-0.43709868,-0.90554065,-0.10552697,-0.10140363,-0.14645495
660,6.599999999999904,-0.33709285,-0.43709868,-0.90554065,-0.09056077,-0.111177474,-0.17195857
661,6.6099999999999035,-0.3259946,-0.42045137,-0.9002964,-0.07941248,-0.10873401,-0.18661933
662,6.619999999999903,-0.32026258,-0.40776768,-0.8999306,-0.0720821,-0.107359566,-0.19639318
663,6.629999999999903,-0.32026258,-0.40776768,-0.8999306,-0.0720821,-0.107359566,-0.19639318
664,6.639999999999903,-0.30562758,-0.39307174,-0.9067602,-0.06566802,-0.13179417,-0.20845777
665,6.649999999999903,-0.29294392,-0.38422972,-0.9131021,-0.079870634,-0.16493362,-0.24266621
666,6.659999999999902,-0.28727287,-0.3904496,-0.89151543,-0.079870634,-0.16493362,-0.24266621
667,6.669999999999902,-0.28727287,-0.3904496,-0.89151543,-0.09468412,-0.13332134,-0.27473664
668,6.679999999999902,-0.32471406,-0.41978058,-0.83206075,-0.08506299,-0.10644327,-0.28206703
669,6.689999999999902,-0.33672696,-0.43283013,-0.7949854,0.036957346,-0.08964448,-0.20433442
670,6.699999999999902,-0.33440974,-0.43423265,-0.7803504,0.09773844,-0.07452556,-0.16126843
671,6.709999999999901,-0.3281289,-0.4278908,-0.7823017,0.14874569,-0.03756821,-0.12064589
672,6.719999999999901,-0.30953026,-0.415634,-0.7963879,0.16661349,0.018784106,-0.1085813
673,6.729999999999901,-0.29916382,-0.41075566,-0.80852276,0.15867224,0.090713486,-0.10399981
674,6.739999999999901,-0.29623678,-0.40929216,-0.81096196,0.14828753,0.14920384,-0.09330966
675,6.7499999999999005,-0.30081022,-0.4165487,-0.7899851,0.15653422,0.16401732,-0.05665775
676,6.7599999999999,-0.30977416,-0.41606086,-0.7729719,0.17363845,0.13973543,-0.018478673
677,6.7699999999999,-0.2953831,-0.4080726,-0.7510194,0.20051652,0.120493166,0.017256944
678,6.7799999999999,-0.2953831,-0.4080726,-0.7510194,0.2443461,0.14523321,0.03940081
679,6.7899999999999,-0.27117437,-0.4177683,-0.77699655,0.28053987,0.22479841,0.04062254
680,6.7999999999998995,-0.257576,-0.42801276,-0.8147426,0.28878653,0.26633725,0.03436117
681,6.809999999999899,-0.257576,-0.42801276,-0.8147426,0.24969117,0.25381452,0.01817324
682,6.819999999999899,-0.257576,-0.42801276,-0.8147426,0.24969117,0.25381452,0.01817324
683,6.829999999999899,-0.26178357,-0.47106406,-0.8561475,0.27275133,0.13561209,0.023823744
684,6.839999999999899,-0.25647837,-0.4656979,-0.8561475,0.28389964,0.105068825,0.026419923
685,6.849999999999898,-0.21415883,-0.42990315,-0.8688312,0.27290404,0.10629055,0.01282817
686,6.859999999999898,-0.20238985,-0.43130565,-0.8740754,0.22525656,0.13881913,-0.03283401
687,6.869999999999898,-0.20275573,-0.44447714,-0.88023424,0.18616119,0.13362677,-0.056352317
688,6.879999999999898,-0.2080609,-0.45813647,-0.8757219,0.18616119,0.13362677,-0.056352317
689,6.8899999999998975,-0.2080609,-0.45813647,-0.8757219,0.08933904,0.012217305,-0.09315695
690,6.899999999999897,-0.23440392,-0.50887114,-0.84273213,0.061850104,-0.06001751,-0.10399981
691,6.909999999999897,-0.24757542,-0.51576185,-0.83791476,0.03023783,-0.09560041,-0.10888673
692,6.919999999999897,-0.25605154,-0.5119201,-0.82437736,0.03023783,-0.09560041,-0.10888673
693,6.929999999999897,-0.2828214,-0.5026513,-0.78333837,-0.019089539,-0.039858956,-0.12415836
694,6.9399999999998965,-0.29513916,-0.5017366,-0.766935,-0.018020526,-0.016646078,-0.12186762
695,6.949999999999896,-0.32483602,-0.50027305,-0.7268107,0.037110064,0.10094548,-0.064446285
696,6.959999999999896,-0.33617815,-0.5008219,-0.7088828,0.037110064,0.10094548,-0.064446285
697,6.969999999999896,-0.33794656,-0.51789606,-0.71937126,0.08628472,0.17944166,-0.00580322
698,6.979999999999896,-0.33611718,-0.5408852,-0.7449215,0.119729586,0.24572055,0.06887506
699,6.989999999999895,-0.3108718,-0.57728976,-0.76656914,0.14477506,0.2753475,0.13500121
700,6.999999999999895,-0.28715092,-0.58454627,-0.7848019,0.22006421,0.2771801,0.2406809
701,7.009999999999895,-0.24690464,-0.57857037,-0.8190721,0.2603813,0.25427267,0.28619036
702,7.019999999999895,-0.23019636,-0.56100833,-0.8469397,0.27748555,0.2519819,0.2948952
703,7.0299999999998946,-0.23019636,-0.56100833,-0.8469397,0.27748555,0.2519819,0.2948952
704,7.039999999999894,-0.22342768,-0.48313794,-0.8877957,0.28252518,0.2507602,0.29123
705,7.049999999999894,-0.22501312,-0.4621611,-0.8851126,0.24831672,0.24678956,0.27030787
706,7.059999999999894,-0.23605035,-0.42520773,-0.8735266,0.23869559,0.2321288,0.2593123
707,7.069999999999894,-0.23068418,-0.41837808,-0.8818197,0.24984388,0.20295998,0.27046058
708,7.0799999999998935,-0.21842737,-0.42898846,-0.8791367,0.24984388,0.18585575,0.28893927
709,7.089999999999893,-0.20269476,-0.45959997,-0.875173,0.24480425,0.18952094,0.30955598
710,7.099999999999893,-0.19769447,-0.48100364,-0.8773073,0.22876903,0.19807306,0.32910365
711,7.109999999999893,-0.19080381,-0.5266771,-0.85767204,0.15485434,0.23060162,0.3565926
712,7.119999999999893,-0.19440159,-0.5616791,-0.81584024,0.10323623,0.25213462,0.34880406
713,7.129999999999892,-0.22812307,-0.5822901,-0.7954732,0.09590584,0.25335637,0.34147367
714,7.139999999999892,-0.24623388,-0.57704586,-0.7927902,0.1133155,0.24236079,0.3220787
715,7.149999999999892,-0.2550149,-0.56393534,-0.7984003,0.12935072,0.23518312,0.302531
716,7.159999999999892,-0.2689791,-0.5066759,-0.84992766,0.15928312,0.20112738,0.268628
717,7.169999999999892,-0.26428372,-0.4644783,-0.90450394,0.07971791,0.076052725,0.21731532
718,7.179999999999891,-0.2403189,-0.43563515,-0.93042016,0.011759156,0.029168816,0.16325374
719,7.189999999999891,-0.23111105,-0.42337835,-0.9358473,0.011759156,0.029168816,0.16325374
720,7.199999999999891,-0.21245141,-0.43130565,-0.84590304,-0.04505131,-0.022602014,0.10552697
721,7.209999999999891,-0.21592724,-0.4444162,-0.83017033,-0.09865474,-0.122020334,-0.03863723
722,7.2199999999998905,-0.22708642,-0.46392953,-0.819316,-0.09865474,-0.122020334,-0.03863723
723,7.22999999999989,-0.23983108,-0.48149154,-0.80462015,-0.17272215,-0.14462234,-0.12232576
724,7.23999999999989,-0.2506244,-0.4908213,-0.7909608,-0.20051652,-0.16187929,-0.14065172
725,7.24999999999989,-0.2759917,-0.5138105,-0.7782771,-0.20051652,-0.16187929,-0.14065172
726,7.25999999999989,-0.28995594,-0.5256404,-0.7880338,-0.23335053,-0.19501872,-0.14813483
727,7.269999999999889,-0.29952967,-0.53106755,-0.79925394,-0.22739458,-0.19990565,-0.12232576
728,7.279999999999889,-0.29952967,-0.53106755,-0.79925394,-0.22739458,-0.19990565,-0.12232576
729,7.289999999999889,-0.29952967,-0.53106755,-0.79925394,-0.22739458,-0.19990565,-0.12232576
730,7.299999999999889,-0.29373667,-0.52521354,-0.79974174,-0.12996158,-0.14782938,-0.0852157
731,7.309999999999889,-0.2461729,-0.4909433,-0.8479153,-0.12507465,-0.15027285,-0.08399397
732,7.319999999999888,-0.23873344,-0.48075974,-0.86944103,-0.15683965,-0.1591304,-0.09025534
733,7.329999999999888,-0.24946578,-0.47838157,-0.86614805,-0.19349156,-0.16294831,-0.101556346
734,7.339999999999888,-0.2783089,-0.48386967,-0.85273266,-0.21685717,-0.15332718,-0.10048734
735,7.349999999999888,-0.31361586,-0.49813882,-0.82852393,-0.20525073,-0.10919216,-0.050396383
736,7.3599999999998875,-0.333678,-0.5084443,-0.8110839,-0.17287487,-0.042913284,0.016798794
737,7.369999999999887,-0.32977533,-0.5137495,-0.8060836,-0.11499538,0.007483099,0.07192938
738,7.379999999999887,-0.31367683,-0.50881016,-0.8128523,-0.06154467,0.035888333,0.11377365
739,7.389999999999887,-0.29160237,-0.4985047,-0.8332194,-0.013897184,0.04230242,0.13362677
740,7.399999999999887,-0.26940596,-0.47850356,-0.8707215,0.0364992,0.029321533,0.1255328
741,7.4099999999998865,-0.21848835,-0.43252525,-0.9248711,0.03634648,-0.03924809,0.029168816
742,7.419999999999886,-0.20275573,-0.4077067,-0.95377517,-0.018020526,-0.10430524,-0.01740966
743,7.429999999999886,-0.20275573,-0.4077067,-0.95377517,-0.018020526,-0.10430524,-0.01740966
744,7.439999999999886,-0.20001167,-0.38374192,-0.9467625,-0.21853705,-0.21319197,-0.15286903
745,7.449999999999886,-0.21531744,-0.39593774,-0.91700476,-0.2501493,-0.21227567,-0.17745635
746,7.459999999999885,-0.28147984,-0.4288055,-0.8612698,-0.28893927,-0.204029,-0.26221392
747,7.469999999999885,-0.32940948,-0.45002624,-0.8371221,-0.28252518,-0.21884248,-0.29764408
748,7.479999999999885,-0.32940948,-0.45002624,-0.8371221,-0.28252518,-0.21884248,-0.29764408
749,7.489999999999885,-0.37300956,-0.46624672,-0.8022419,-0.24556783,-0.22953261,-0.3119994
750,7.4999999999998845,-0.38526636,-0.46368557,-0.746385,-0.13820826,-0.1947133,-0.28695396
751,7.509999999999884,-0.3287387,-0.4428917,-0.7587028,0.09636399,-0.062308256,-0.14172074
752,7.519999999999884,-0.2581858,-0.4416111,-0.7940707,0.1470658,-0.02275473,-0.062002823
753,7.529999999999884,-0.201963,-0.4495994,-0.80852276,0.15042557,-0.02397646,-0.012980887
754,7.539999999999884,-0.1630583,-0.4723446,-0.83273154,0.13454308,-0.04230242,0.0053450707
755,7.5499999999998835,-0.16372907,-0.48947978,-0.8583427,0.10797043,-0.079107046,-0.0070249503
756,7.559999999999883,-0.19763349,-0.50161463,-0.9223709,-0.018020526,-0.20097467,-0.103847094
757,7.569999999999883,-0.23056222,-0.47801572,-0.95468986,-0.018020526,-0.20097467,-0.103847094
758,7.579999999999883,-0.29520014,-0.4056944,-0.91773653,-0.11255192,-0.2687807,-0.17638734
759,7.589999999999883,-0.31764048,-0.39307174,-0.8650505,-0.16829337,-0.3034473,-0.24388795
760,7.599999999999882,-0.31764048,-0.39307174,-0.8650505,-0.18509217,-0.2950479,-0.31627548
761,7.609999999999882,-0.35343525,-0.39740124,-0.79949784,-0.18509217,-0.2950479,-0.31627548
762,7.619999999999882,-0.35867947,-0.4182561,-0.75345856,-0.09682214,-0.122478485,-0.33841935
763,7.629999999999882,-0.33831242,-0.49069935,-0.7469948,0.034208454,0.009010263,-0.28680122
764,7.6399999999998816,-0.33831242,-0.49069935,-0.7469948,0.034208454,0.009010263,-0.28680122
765,7.649999999999881,-0.33831242,-0.49069935,-0.7469948,0.034208454,0.009010263,-0.28680122
766,7.659999999999881,-0.30428603,-0.55417866,-0.8487081,0.107665,-0.064751714,-0.18448131
767,7.669999999999881,-0.24458744,-0.54076326,-0.88145393,0.107665,-0.064751714,-0.18448131
768,7.679999999999881,-0.20830485,-0.51271284,-0.8706606,0.015882496,-0.0983493,-0.16401732
769,7.6899999999998805,-0.20513393,-0.4936264,-0.8591965,-0.010995574,-0.08384126,-0.18142697
770,7.69999999999988,-0.22031774,-0.4663077,-0.81827945,-0.04917465,-0.043829583,-0.21975878
771,7.70999999999988,-0.23714797,-0.4677712,-0.7882167,-0.060322944,-0.002443461,-0.24205536
772,7.71999999999988,-0.2821506,-0.47923526,-0.76559347,-0.055741455,0.030543262,-0.24083363
773,7.72999999999988,-0.31428665,-0.48911393,-0.76047117,-0.047494773,0.05375614,-0.2078469
774,7.739999999999879,-0.3284338,-0.49893156,-0.7560807,-0.034513887,0.07345655,-0.1553125
775,7.749999999999879,-0.32794595,-0.51015174,-0.75205606,-0.010537425,0.10308351,-0.09773844
776,7.759999999999879,-0.316116,-0.5193596,-0.758154,0.02565634,0.1253801,-0.03772093
777,7.769999999999879,-0.316116,-0.5193596,-0.758154,0.02565634,0.1253801,-0.03772093
778,7.779999999999879,-0.316116,-0.5193596,-0.758154,0.02565634,0.1253801,-0.03772093
779,7.789999999999878,-0.24348982,-0.51905465,-0.8051689,0.13988814,0.15195273,0.08155051
780,7.799999999999878,-0.24245316,-0.5224695,-0.81242543,0.13973543,0.16783522,0.09254608
781,7.809999999999878,-0.24428254,-0.5288723,-0.81968194,0.05879578,0.17333302,0.111635625
782,7.819999999999878,-0.24428254,-0.5288723,-0.81968194,0.013439035,0.1572978,0.11866058
783,7.8299999999998775,-0.25129515,-0.52881134,-0.79785144,0.013439035,0.1572978,0.11866058
784,7.839999999999877,-0.2534294,-0.521006,-0.78626543,0.013897184,0.09865474,0.12996158
785,7.849999999999877,-0.25928342,-0.49673632,-0.79827833,0.021380283,0.08170322,0.13255776
786,7.859999999999877,-0.24458744,-0.45874628,-0.83029234,0.04627304,0.035430185,0.12675454
787,7.869999999999877,-0.23416002,-0.45289227,-0.8521839,0.0364992,0.026725354,0.12064589
788,7.879999999999876,-0.23416002,-0.45289227,-0.8521839,0.0364992,0.026725354,0.12064589
789,7.889999999999876,-0.2110489,-0.465454,-0.86645305,-0.028405234,0.026419923,0.12507465
790,7.899999999999876,-0.20086539,-0.4794792,-0.85492796,-0.072540246,0.022449298,0.12721269
791,7.909999999999876,-0.19708468,-0.5027732,-0.8263287,-0.12018774,0.0062613687,0.13683382
792,7.919999999999876,-0.19708468,-0.5197864,-0.8159013,-0.12507465,-0.0047342055,0.15271631
793,7.929999999999875,-0.18995011,-0.5485686,-0.83157295,-0.12385293,-0.020463986,0.16997325
794,7.939999999999875,-0.18903543,-0.55600804,-0.8699898,-0.1470658,-0.047494773,0.18096884
795,7.949999999999875,-0.18995011,-0.55161756,-0.87877077,-0.23197608,-0.13469578,0.15134187
796,7.959999999999875,-0.2125734,-0.5230183,-0.87742925,-0.23197608,-0.13469578,0.15134187
797,7.9699999999998745,-0.2523318,-0.49301654,-0.86602616,-0.25473082,-0.18005253,0.12568553
798,7.979999999999874,-0.31270117,-0.43392777,-0.860538,-0.25793785,-0.22159137,0.095294975
799,7.989999999999874,-0.330751,-0.41990253,-0.86334306,-0.2565634,-0.2264783,0.0842994
800,7.999999999999874,-0.330751,-0.41990253,-0.86334306,-0.2565634,-0.2264783,0.0842994
801,8.009999999999874,-0.37459502,-0.40849942,-0.8741364,-0.23777929,-0.21670444,0.018325957
802,8.019999999999873,-0.39203507,-0.41349974,-0.8791367,-0.23777929,-0.21670444,0.018325957
803,8.029999999999873,-0.39203507,-0.41349974,-0.8791367,-0.22556199,-0.20082195,-0.0012217305
804,8.039999999999873,-0.40319425,-0.4378914,-0.8745633,-0.1853976,-0.16279559,-0.021991149
805,8.049999999999873,-0.3983159,-0.44953844,-0.86852634,-0.13881913,-0.15393804,-0.021685716
806,8.059999999999873,-0.36965573,-0.45228252,-0.8535864,-0.10598512,-0.12935072,-0.01786781
807,8.069999999999872,-0.34733734,-0.45307523,-0.84114665,-0.080634214,-0.08032878,-0.024129177
808,8.079999999999872,-0.32197002,-0.4485018,-0.8453542,-0.04444045,-0.00076358154,-0.041233405
809,8.089999999999872,-0.30922535,-0.44801396,-0.8573671,-0.039553523,0.018784106,-0.048716504
810,8.099999999999872,-0.2918463,-0.44655046,-0.8923082,-0.040775254,0.030848695,-0.06093381
811,8.109999999999872,-0.2847727,-0.4475261,-0.9126752,-0.052839845,0.0015271631,-0.068264194
812,8.119999999999871,-0.2872119,-0.44563577,-0.9156632,-0.059864793,-0.03756821,-0.0729984
813,8.129999999999871,-0.2950782,-0.43978173,-0.9138948,-0.062002823,-0.06566802,-0.07544186
814,8.139999999999871,-0.3035543,-0.43106174,-0.89895487,-0.0693332,-0.070554934,-0.07422013
815,8.14999999999987,-0.30135906,-0.42398816,-0.82785314,-0.031612277,-0.033750303,-0.07651087
816,8.15999999999987,-0.28873634,-0.43264723,-0.81888926,0.018478673,-0.017562376,-0.08002335
817,8.16999999999987,-0.27721128,-0.45161173,-0.8395002,0.06872234,-0.030695979,-0.078343466
818,8.17999999999987,-0.27721128,-0.45161173,-0.8395002,0.06872234,-0.030695979,-0.078343466
819,8.18999999999987,-0.295627,-0.45130682,-0.8494398,0.07925977,-0.10262536,-0.0926988
820,8.19999999999987,-0.31343293,-0.4416111,-0.8258409,0.058337633,-0.09911288,-0.09773844
821,8.20999999999987,-0.3521547,-0.42990315,-0.7664472,0.06887506,-0.038026363,-0.09056077
822,8.21999999999987,-0.36453345,-0.41923177,-0.7505926,0.11866058,0.013591751,-0.0720821
823,8.229999999999869,-0.36453345,-0.41923177,-0.7505926,0.11866058,0.013591751,-0.0720821
824,8.239999999999869,-0.36453345,-0.41923177,-0.7505926,0.19303341,0.026267206,-0.033750303
825,8.249999999999869,-0.36453345,-0.41923177,-0.7505926,0.19303341,0.026267206,-0.033750303
826,8.259999999999868,-0.2830653,-0.40642616,-0.86639196,0.09407325,-0.0096211275,-0.028099801
827,8.269999999999868,-0.28556544,-0.42197582,-0.8487081,0.052534413,0.0033597588,-0.06154467
828,8.279999999999868,-0.2953831,-0.44051352,-0.8310241,0.05131268,0.0143553335,-0.09086621
829,8.289999999999868,-0.30129808,-0.44685537,-0.819316,0.08323039,0.01695151,-0.10781772
830,8.299999999999867,-0.2720281,-0.43941587,-0.82840204,0.121256754,0.014813482,-0.107665
831,8.309999999999867,-0.25489292,-0.43392777,-0.837061,0.14446963,0.011301007,-0.10125092
832,8.319999999999867,-0.25489292,-0.43392777,-0.837061,0.16294831,0.0053450707,-0.10247265
833,8.329999999999867,-0.23367217,-0.4334399,-0.8675506,0.16676621,-0.001985312,-0.1255328
834,8.339999999999867,-0.23995303,-0.43447655,-0.8690751,0.14248432,0.017256944,-0.18936823
835,8.349999999999866,-0.25635642,-0.45356306,-0.8757828,0.116675265,0.053603426,-0.21426098
836,8.359999999999866,-0.2426361,-0.46905175,-0.8705996,0.09819659,0.05955936,-0.20952678
837,8.369999999999866,-0.22854991,-0.47582048,-0.8659651,0.09819659,0.05955936,-0.20952678
838,8.379999999999866,-0.21537842,-0.47813767,-0.8619405,0.02275473,-0.031154128,-0.1704314
839,8.389999999999866,-0.2110489,-0.48246717,-0.857428,0.0047342055,-0.06536258,-0.1740966
840,8.399999999999865,-0.22568391,-0.48984566,-0.8511472,-0.01985312,-0.17669277,-0.22876903
841,8.409999999999865,-0.27989438,-0.48332086,-0.84254915,-0.026419923,-0.24877487,-0.2603813
842,8.419999999999865,-0.27989438,-0.48332086,-0.84254915,-0.041080687,-0.2611449,-0.2603813
843,8.429999999999865,-0.3392271,-0.45325816,-0.7748013,-0.056352317,-0.21227567,-0.22159137
844,8.439999999999864,-0.32245782,-0.4486847,-0.7488242,-0.053297993,-0.15851954,-0.19242255
845,8.449999999999864,-0.32245782,-0.4486847,-0.7488242,-0.053297993,-0.15851954,-0.19242255
846,8.459999999999864,-0.2771503,-0.5132617,-0.7578491,0.033292156,0.03359759,-0.16447547
847,8.469999999999864,-0.2819067,-0.54753196,-0.7954732,0.051465396,0.061850104,-0.16691893
848,8.479999999999864,-0.29263905,-0.57503355,-0.82931674,0.05024367,0.05207626,-0.15225816
849,8.489999999999863,-0.2842239,-0.5808266,-0.84139055,0.030695979,0.011759156,-0.12644911
850,8.499999999999863,-0.23964813,-0.56100833,-0.825597,-0.01038471,-0.07147124,-0.09712757
851,8.509999999999863,-0.20178007,-0.53838503,-0.8244993,-0.043066,-0.120493166,-0.09590584
852,8.519999999999863,-0.23733091,-0.46063665,-0.8263287,-0.11148291,-0.14782938,-0.1133155
853,8.529999999999863,-0.23733091,-0.46063665,-0.8263287,-0.14966199,-0.12858713,-0.10262536
854,8.539999999999862,-0.25739306,-0.4489896,-0.8212674,-0.14966199,-0.12858713,-0.10262536
855,8.549999999999862,-0.27916262,-0.44612357,-0.793278,-0.15118915,-0.082161374,-0.093004234
856,8.559999999999862,-0.3305071,-0.47575948,-0.8070593,-0.056505036,-0.019242255,-0.03145956
857,8.569999999999862,-0.32477504,-0.5040538,-0.8290728,-0.018020526,0.028710667,0.024740042
858,8.579999999999862,-0.31514034,-0.5274698,-0.85108626,-0.018020526,0.028710667,0.024740042
859,8.589999999999861,-0.31514034,-0.5274698,-0.85108626,-0.032528576,0.08735373,0.10644327
860,8.599999999999861,-0.2706865,-0.5600937,-0.78839964,-0.022907447,0.104610674,0.12110403
861,8.60999999999986,-0.2736745,-0.55576414,-0.7850458,-0.0009162979,0.09621128,0.14446963
862,8.61999999999986,-0.2595883,-0.526921,-0.7993759,0.02107485,0.082924955,0.16920967
863,8.62999999999986,-0.248795,-0.4913701,-0.8265117,0.022449298,0.07315111,0.17287487
864,8.63999999999986,-0.24818522,-0.4471602,-0.86992884,-0.012980887,0.0571159,0.16294831
865,8.64999999999986,-0.24818522,-0.4471602,-0.86992884,-0.012980887,0.0571159,0.16294831
866,8.65999999999986,-0.2698938,-0.43276918,-0.9000525,-0.117744274,0.017256944,0.12217305
867,8.66999999999986,-0.26599112,-0.46533203,-0.881088,-0.12858713,0.00015271631,0.119729586
868,8.67999999999986,-0.25428313,-0.5017366,-0.8580988,-0.10751228,-0.035124753,0.12110403
869,8.68999999999986,-0.23184279,-0.5322872,-0.84193933,-0.05665775,-0.10934488,0.11560625
870,8.699999999999859,-0.23184279,-0.5322872,-0.84193933,-0.05665775,-0.10934488,0.11560625
871,8.709999999999859,-0.24739249,-0.49624845,-0.81766963,-0.061391957,-0.1142318,0.08384126
872,8.719999999999859,-0.27074748,-0.4563681,-0.79791236,-0.061391957,-0.1142318,0.08384126
873,8.729999999999858,-0.27074748,-0.4563681,-0.79791236,-0.061391957,-0.1142318,0.08384126
874,8.739999999999858,-0.27074748,-0.4563681,-0.79791236,-0.0795652,-0.120493166,0.06047566
875,8.749999999999858,-0.28910223,-0.44045252,-0.82706046,-0.15134187,-0.17348573,0.041996986
876,8.759999999999858,-0.30227375,-0.4434405,-0.8218162,-0.16584991,-0.19058995,0.030848695
877,8.769999999999857,-0.30227375,-0.4434405,-0.8218162,-0.10552697,-0.21960606,0.025350908
878,8.779999999999857,-0.3324584,-0.44026962,-0.82602376,-0.07651087,-0.18646662,0.03756821
879,8.789999999999857,-0.3324584,-0.44167212,-0.82553595,-0.068264194,-0.15225816,0.04230242
880,8.799999999999857,-0.34294683,-0.4358791,-0.80669343,-0.063682705,-0.09850202,0.029932396
881,8.809999999999857,-0.3810588,-0.43362287,-0.79785144,-0.041691553,-0.08735373,0.01786781
882,8.819999999999856,-0.4101459,-0.4358181,-0.81175464,-0.0038179078,-0.08093964,0.03023783
883,8.829999999999856,-0.39916962,-0.43825728,-0.834073,0.04352415,-0.05009095,0.06841691
884,8.839999999999856,-0.35892338,-0.453624,-0.85291564,0.07941248,0.0355829,0.09758572
885,8.849999999999856,-0.3245921,-0.47295445,-0.86309916,0.09850202,0.09437868,0.10842858
886,8.859999999999856,-0.29898086,-0.50789547,-0.8706606,0.10308351,0.13836098,0.120493166
887,8.869999999999855,-0.28117493,-0.53173834,-0.8799294,0.106595986,0.1469131,0.13026701
888,8.879999999999855,-0.26343,-0.53314084,-0.8992598,0.11148291,0.13958271,0.1328632
889,8.889999999999855,-0.24720955,-0.518018,-0.925115,0.1217149,0.105374254,0.114689946
890,8.899999999999855,-0.26343,-0.45063603,-1.0031073,0.061239243,-0.07696902,0.010995574
891,8.909999999999854,-0.27824792,-0.4170975,-1.0031683,0.061239243,-0.07696902,0.010995574
892,8.919999999999854,-0.2973954,-0.38099784,-0.9613976,-0.069027774,-0.24037547,-0.12370021
893,8.929999999999854,-0.2973954,-0.38099784,-0.9613976,-0.069027774,-0.24037547,-0.12370021
894,8.939999999999854,-0.31196943,-0.368802,-0.92322457,-0.09315695,-0.25518894,-0.16417004
895,8.949999999999854,-0.33087295,-0.39002275,-0.8217553,-0.07284568,-0.16355917,-0.19242255
896,8.959999999999853,-0.31776243,-0.4200855,-0.7949854,-0.052687127,-0.10476339,-0.15836681
897,8.969999999999853,-0.2895291,-0.46362463,-0.7692522,-0.0154243475,-0.044745877,-0.104610674
898,8.979999999999853,-0.2895291,-0.46362463,-0.7692522,-0.0154243475,-0.044745877,-0.104610674
899,8.989999999999853,-0.22525704,-0.49015057,-0.79461956,0.037110064,-0.04550946,-0.098043874
900,8.999999999999853,-0.23416002,-0.49716315,-0.8234017,0.013133603,-0.10064005,-0.112704635
901,9.009999999999852,-0.26410076,-0.46953958,-0.82010883,0.013133603,-0.10064005,-0.112704635
902,9.019999999999852,-0.31770146,-0.42398816,-0.8002906,-0.07895433,-0.21594086,-0.1385137
903,9.029999999999852,-0.31770146,-0.42398816,-0.8002906,-0.11071932,-0.22357668,-0.13133603
904,9.039999999999852,-0.39124236,-0.3670336,-0.6910769,-0.10751228,-0.17715092,-0.10949759
905,9.049999999999851,-0.38825434,-0.377583,-0.6431473,-0.061391957,-0.1328632,-0.09468412
906,9.059999999999851,-0.37489992,-0.40142587,-0.65052575,0.007941248,-0.095753126,-0.07727446
907,9.069999999999851,-0.3752658,-0.43569615,-0.69156474,0.07162395,-0.09040806,-0.05971208
908,9.07999999999985,-0.37050945,-0.47435695,-0.75339764,0.1020145,-0.082924955,-0.03268129
909,9.08999999999985,-0.35691106,-0.5207621,-0.81748676,0.022296581,-0.09437868,-0.00992656
910,9.09999999999985,-0.34136137,-0.5456416,-0.8472445,0.022296581,-0.09437868,-0.00992656
911,9.10999999999985,-0.33733675,-0.5622279,-0.8552938,-0.02397646,-0.11301007,-0.024740042
912,9.11999999999985,-0.34331274,-0.5514956,-0.8476714,-0.06765333,-0.15714508,-0.040775254
913,9.12999999999985,-0.37605852,-0.46380752,-0.7915706,-0.0364992,-0.23273966,-0.04886922
914,9.13999999999985,-0.37227783,-0.43892804,-0.7913876,-0.0010690142,-0.21410827,-0.03772093
915,9.14999999999985,-0.37227783,-0.43892804,-0.7913876,0.020158553,-0.11881329,-0.018325957
916,9.15999999999985,-0.333678,-0.43819633,-0.8036444,0.015577064,-0.02107485,-0.013897184
917,9.169999999999849,-0.29623678,-0.45709983,-0.8347438,-0.00076358154,0.059253927,-0.026572637
918,9.179999999999849,-0.27178416,-0.48240623,-0.87657547,-0.00076358154,0.059253927,-0.026572637
919,9.189999999999849,-0.2637349,-0.5336897,-0.9192609,-0.058184914,0.07345655,-0.08323039
920,9.199999999999848,-0.2637349,-0.5336897,-0.9192609,-0.058184914,0.07345655,-0.08323039
921,9.209999999999848,-0.2637349,-0.5336897,-0.9192609,-0.058184914,0.07345655,-0.08323039
922,9.219999999999848,-0.34087354,-0.48515025,-0.8391954,-0.046883907,0.011301007,-0.06093381
923,9.229999999999848,-0.34111744,-0.43630594,-0.7920584,-0.008246681,0.06780604,-0.030390546
924,9.239999999999847,-0.33465368,-0.40404797,-0.77242315,0.03268129,0.14004086,-0.0035124752
925,9.249999999999847,-0.3153233,-0.39410836,-0.7616298,0.0580322,0.1853976,0.017256944
926,9.259999999999847,-0.30312744,-0.39599872,-0.76102,0.08933904,0.22235495,0.04428773
927,9.269999999999847,-0.29178533,-0.41349974,-0.7689473,0.103847094,0.23457226,0.057726767
928,9.279999999999847,-0.2826994,-0.43691576,-0.7861435,0.122020334,0.24816401,0.07498371
929,9.289999999999846,-0.27471116,-0.48472342,-0.82346267,0.1244638,0.24572055,0.08353582
930,9.299999999999846,-0.27471116,-0.48472342,-0.82346267,0.100029185,0.22495113,0.09941832
931,9.309999999999846,-0.2728208,-0.4944191,-0.8072422,0.07941248,0.19058995,0.10064005
932,9.319999999999846,-0.27013773,-0.50161463,-0.7861435,0.07376198,0.14049901,0.106901415
933,9.329999999999846,-0.26788148,-0.4932605,-0.7706547,0.086132,0.11255192,0.11927144
934,9.339999999999845,-0.26007617,-0.4932605,-0.7735207,0.086132,0.07849618,0.15989397
935,9.349999999999845,-0.23056222,-0.49557772,-0.79510736,0.086132,0.07849618,0.15989397
936,9.359999999999845,-0.21525647,-0.49600452,-0.8129743,0.06047566,0.06734789,0.17195857
937,9.369999999999845,-0.2128173,-0.51173717,-0.8556597,-0.009315695,0.046120327,0.18509217
938,9.379999999999844,-0.22623271,-0.526982,-0.8736486,-0.0983493,0.00290161,0.17852537
939,9.389999999999844,-0.22623271,-0.526982,-0.8736486,-0.1469131,-0.053603426,0.16508633
940,9.399999999999844,-0.28379703,-0.5000902,-0.87986845,-0.17104226,-0.103847094,0.16875152
941,9.409999999999844,-0.2961758,-0.48838213,-0.8684653,-0.17104226,-0.103847094,0.16875152
942,9.419999999999844,-0.3181893,-0.48368677,-0.86633104,-0.20189096,-0.21273382,0.15806139
943,9.429999999999843,-0.33038515,-0.4788694,-0.86547726,-0.21029036,-0.23350324,0.15195273
944,9.439999999999843,-0.34770322,-0.47258857,-0.84431756,-0.23457226,-0.24831672,0.13103059
945,9.449999999999843,-0.3527645,-0.4696006,-0.82785314,-0.24190263,-0.23854288,0.11499538
946,9.459999999999843,-0.36160645,-0.4721007,-0.81815743,-0.24205536,-0.21426098,0.095294975
947,9.469999999999843,-0.37861964,-0.474174,-0.8236456,-0.22983804,-0.18127427,0.07941248
948,9.479999999999842,-0.38240036,-0.4727715,-0.8344389,-0.22143865,-0.15439619,0.068264194
949,9.489999999999842,-0.3925229,-0.47380814,-0.84523225,-0.21670444,-0.12873985,0.056046885
950,9.499999999999842,-0.39685243,-0.4753326,-0.8476714,-0.21181752,-0.12140947,0.048716504
951,9.509999999999842,-0.39977944,-0.48362577,-0.8466348,-0.19960022,-0.10903945,0.03772093
952,9.519999999999841,-0.40758476,-0.47344226,-0.8502936,-0.19486602,-0.09315695,0.03772093
953,9.529999999999841,-0.38648596,-0.42648828,-0.84139055,-0.18142697,-0.0870483,0.04138612
954,9.539999999999841,-0.36953375,-0.40496266,-0.8463298,-0.17272215,-0.08811731,0.034055736
955,9.54999999999984,-0.36953375,-0.40496266,-0.8463298,-0.17272215,-0.08811731,0.034055736
956,9.55999999999984,-0.35441092,-0.3825223,-0.8586477,-0.17027868,-0.08078693,0.01817324
957,9.56999999999984,-0.35441092,-0.3825223,-0.8586477,-0.17654006,-0.057726767,0.0009162979
958,9.57999999999984,-0.34105647,-0.3766683,-0.8854175,-0.19379699,-0.031001411,-0.018936822
959,9.58999999999984,-0.3447762,-0.40057215,-0.88950306,-0.21197024,-0.01282817,-0.055741455
960,9.59999999999984,-0.35587442,-0.42112213,-0.88694197,-0.19822577,-0.04337143,-0.06536258
961,9.60999999999984,-0.36361876,-0.42063433,-0.88992995,-0.18463401,-0.0664316,-0.065209866
962,9.61999999999984,-0.36361876,-0.42063433,-0.88992995,-0.18463401,-0.0664316,-0.065209866
963,9.62999999999984,-0.36099666,-0.40642616,-0.86767256,-0.15867224,-0.090713486,-0.063682705
964,9.639999999999839,-0.35550857,-0.39264485,-0.8395002,-0.118202426,-0.096516706,-0.076816306
965,9.649999999999839,-0.34648362,-0.38136372,-0.82736534,-0.04841107,-0.0729984,-0.09117164
966,9.659999999999838,-0.33953202,-0.38477856,-0.83846354,-0.009468411,-0.026267206,-0.10216721
967,9.669999999999838,-0.33953202,-0.38477856,-0.83846354,-0.009468411,-0.026267206,-0.10216721
968,9.679999999999838,-0.33751968,-0.38526636,-0.8433418,-0.0035124752,-0.007941248,-0.11071932
969,9.689999999999838,-0.33751968,-0.38526636,-0.8433418,-0.0035124752,-0.007941248,-0.11071932
970,9.699999999999838,-0.33794656,-0.38916904,-0.8481592,-0.0035124752,-0.007941248,-0.11071932
971,9.709999999999837,-0.39502305,-0.39386442,-0.83895135,0.015577064,-0.072540246,-0.1421789
972,9.719999999999837,-0.39154723,-0.38057098,-0.80010766,0.076816306,-0.119729586,-0.07422013
973,9.729999999999837,-0.37270468,-0.37508285,-0.7907169,0.0936151,-0.08536842,-0.054825157
974,9.739999999999837,-0.3273362,-0.3699606,-0.79760754,0.112704635,0.00015271631,-0.07941248
975,9.749999999999837,-0.3272752,-0.39099842,-0.8368171,0.112704635,0.00015271631,-0.07941248
976,9.759999999999836,-0.3422151,-0.4072189,-0.8484642,0.107665,0.019547688,-0.09911288
977,9.769999999999836,-0.3422151,-0.4072189,-0.8484642,0.093004234,0.028099801,-0.10293079
978,9.779999999999836,-0.36575305,-0.42191488,-0.8202918,0.0729984,0.048716504,-0.0627664
979,9.789999999999836,-0.36575305,-0.42191488,-0.8202918,0.09697486,0.07696902,-0.010079277
980,9.799999999999836,-0.3091034,-0.3828882,-0.7587638,0.12492194,0.107665,-0.005192355
981,9.809999999999835,-0.3047739,-0.3740462,-0.75833696,0.15760323,0.15790866,-0.025961773
982,9.819999999999835,-0.3293485,-0.37916848,-0.7824237,0.16966783,0.19822577,-0.039553523
983,9.829999999999835,-0.36691165,-0.4019137,-0.81419384,0.16966783,0.19822577,-0.039553523
984,9.839999999999835,-0.39496207,-0.4323423,-0.81797457,0.14553864,0.28237244,0.00030543262
985,9.849999999999834,-0.40166977,-0.468381,-0.81077904,0.15485434,0.31673363,0.029626964
986,9.859999999999834,-0.39038864,-0.48246717,-0.8085838,0.17913623,0.3266602,0.04932737
987,9.869999999999834,-0.35166687,-0.48374772,-0.82864594,0.22342396,0.31230485,0.056963183
988,9.879999999999834,-0.32562876,-0.47734493,-0.85376936,0.25060746,0.29046643,0.04505131
989,9.889999999999834,-0.27733323,-0.45825842,-0.9202976,0.2510656,0.2501493,0.009773844
990,9.899999999999833,-0.25971028,-0.4484408,-0.9358473,0.23441954,0.20723604,-0.014660766
991,9.909999999999833,-0.21293926,-0.41996354,-0.95133597,0.17913623,0.11530081,-0.07345655
992,9.919999999999833,-0.20098734,-0.41490227,-0.92785907,0.124769226,0.05375614,-0.12980886
993,9.929999999999833,-0.20702426,-0.42215878,-0.9024917,0.094531395,0.030390546,-0.16050485
994,9.939999999999833,-0.29129747,-0.47643024,-0.7803504,0.057726767,0.049632803,-0.17180584
995,9.949999999999832,-0.29129747,-0.47643024,-0.7803504,0.05467244,0.088728175,-0.13775012
996,9.959999999999832,-0.32038453,-0.49399224,-0.7365674,0.09712757,0.096516706,-0.0786489
997,9.969999999999832,-0.32038453,-0.49399224,-0.7365674,0.14340061,0.09560041,-0.024587326
998,9.979999999999832,-0.31867713,-0.49015057,-0.758032,0.17852537,0.11301007,0.029321533
999,9.989999999999831,-0.30081022,-0.47557652,-0.8043152,0.20341812,0.16814066,0.09789115
1000,9.999999999999831,-0.30081022,-0.47557652,-0.8043152,0.20066923,0.19257528,0.11728613
