id,timestamp,acc_x,acc_y,acc_z,gyro_x,gyro_y,gyro_z
0,0,-0.5179571,-0.08238286,-0.7172979,-0.07391469,0.21365012,-0.09010262
1,0.01,-0.5179571,-0.08238286,-0.7172979,-0.07391469,0.21365012,-0.09010262
2,0.02,-0.54539764,-0.1144579,-0.781509,-0.018478673,0.15424347,-0.076052725
3,0.03,-0.54539764,-0.1144579,-0.781509,-0.018478673,0.15424347,-0.076052725
4,0.04,-0.5399705,-0.12189735,-0.82864594,-0.037873644,0.09682214,-0.015882496
5,0.05,-0.5371655,-0.12427554,-0.81980395,-0.07360926,0.101556346,-0.008857546
6,0.060000000000000005,-0.5397266,-0.12372673,-0.79992473,-0.08597928,0.11728613,-0.00290161
7,0.07,-0.53759235,-0.10464026,-0.78693616,-0.08002335,0.13332134,0.0032070426
8,0.08,-0.5348483,-0.08268775,-0.7793747,-0.08002335,0.13332134,0.0032070426
9,0.09,-0.5296041,-0.068052754,-0.77852106,-0.022602014,0.14584407,0.025503624
10,0.09999999999999999,-0.5213719,-0.063113436,-0.77364266,0.02367103,0.1498147,0.06246097
11,0.10999999999999999,-0.5139934,-0.07036996,-0.7798016,0.058948494,0.15745051,0.08964448
12,0.11999999999999998,-0.52442086,-0.07634591,-0.80370545,0.0759,0.17837265,0.111635625
13,0.12999999999999998,-0.5349702,-0.07744354,-0.8208406,0.06963864,0.18936823,0.11530081
14,0.13999999999999999,-0.562045,-0.07524829,-0.8430979,0.05467244,0.21975878,0.10277808
15,0.15,-0.57655805,-0.07250423,-0.85883063,0.05589417,0.23075435,0.094225965
16,0.16,-0.59064424,-0.06286953,-0.8717582,0.055741455,0.2660318,0.06963864
17,0.17,-0.5711919,-0.07488242,-0.8602331,0.08903361,0.27107146,0.03680463
18,0.18000000000000002,-0.5716187,-0.08171208,-0.8606599,0.10644327,0.2602286,0.019700404
19,0.19000000000000003,-0.57594824,-0.10653061,-0.85017157,0.13622294,0.2041817,0.0067195175
20,0.20000000000000004,-0.57594824,-0.10653061,-0.85017157,0.13622294,0.2041817,0.0067195175
21,0.21000000000000005,-0.5909491,-0.13634941,-0.84407365,0.1328632,0.16142114,0.010537425
22,0.22000000000000006,-0.5848512,-0.12214127,-0.82614577,0.123242065,0.121256754,0.041233405
23,0.23000000000000007,-0.5790582,-0.11573846,-0.8237676,0.13927728,0.099265605,0.053603426
24,0.24000000000000007,-0.5813754,-0.11433593,-0.83840257,0.15393804,0.095753126,0.058643065
25,0.25000000000000006,-0.5813754,-0.11433593,-0.83840257,0.15393804,0.095753126,0.058643065
26,0.26000000000000006,-0.5813754,-0.11433593,-0.83840257,0.13713925,0.055436023,0.042760566
27,0.2700000000000001,-0.5017976,-0.08537084,-0.9183462,0.124005646,0.03573562,0.03176499
28,0.2800000000000001,-0.4897237,-0.076528855,-0.9115166,0.11056661,0.030695979,0.019547688
29,0.2900000000000001,-0.47142997,-0.069028415,-0.8963328,0.10934488,0.042913284,0.0096211275
30,0.3000000000000001,-0.4511239,-0.06835765,-0.87907565,0.12034045,0.05757405,-0.012370021
31,0.3100000000000001,-0.44526988,-0.077077664,-0.8716362,0.1255328,0.041691553,-0.037873644
32,0.3200000000000001,-0.48704064,-0.1381788,-0.85084236,0.119729586,0.020922136,-0.059864793
33,0.3300000000000001,-0.48704064,-0.1381788,-0.85084236,0.11010846,0.0036651916,-0.080634214
34,0.34000000000000014,-0.48704064,-0.1381788,-0.85084236,0.090713486,-0.002443461,-0.09056077
35,0.35000000000000014,-0.54192185,-0.19647488,-0.8365122,0.038026363,-0.00045814895,-0.095753126
36,0.36000000000000015,-0.550276,-0.18482786,-0.83870745,-0.009773844,0.007788532,-0.102319926
37,0.37000000000000016,-0.5329579,-0.15110639,-0.8360244,-0.07315111,-0.03894266,-0.106137834
38,0.38000000000000017,-0.5362508,-0.14677685,-0.848769,-0.086437434,-0.057421334,-0.10247265
39,0.3900000000000002,-0.521189,-0.12964171,-0.85322046,-0.11453723,-0.06734789,-0.10262536
40,0.4000000000000002,-0.5027732,-0.11390909,-0.85322046,-0.13439035,-0.049021937,-0.09789115
41,0.4100000000000002,-0.4926507,-0.103115775,-0.845964,-0.13439035,-0.049021937,-0.09789115
42,0.4200000000000002,-0.46496618,-0.11262852,-0.83090216,-0.14294247,-0.04062254,-0.098043874
43,0.4300000000000002,-0.46740535,-0.1253122,-0.8205357,-0.12232576,-0.00870483,-0.11759156
44,0.4400000000000002,-0.49429715,-0.16049717,-0.79602206,-0.11133019,0.03145956,-0.15806139
45,0.45000000000000023,-0.53606784,-0.18409611,-0.793217,-0.116217114,0.046120327,-0.1777618
46,0.46000000000000024,-0.5495443,-0.20763406,-0.79894906,-0.14080444,0.041080687,-0.16554448
47,0.47000000000000025,-0.5685698,-0.19263318,-0.8056568,-0.16890424,0.017715093,-0.14126259
48,0.48000000000000026,-0.57552135,-0.16732684,-0.80602264,-0.17760907,0.017715093,-0.111941054
49,0.49000000000000027,-0.56643546,-0.14824036,-0.8012663,-0.15317446,0.0009162979,-0.07742717
50,0.5000000000000002,-0.5403974,-0.16031423,-0.8116327,-0.12156218,-0.0013744468,-0.028252518
51,0.5100000000000002,-0.5283845,-0.1832424,-0.83169484,-0.104610674,-0.007330383,-0.0036651916
52,0.5200000000000002,-0.4911872,-0.19763349,-0.84181744,-0.11438452,-0.010995574,-0.0062613687
53,0.5300000000000002,-0.50624907,-0.19531627,-0.8449273,-0.13148874,0.0022907446,-0.01863139
54,0.5400000000000003,-0.5434463,-0.19159654,-0.8336462,-0.16462818,0.013133603,-0.022449298
55,0.5500000000000003,-0.5674721,-0.1887915,-0.8178526,-0.19165897,0.006872234,-0.009162978
56,0.5600000000000003,-0.57228947,-0.1390325,-0.8043762,-0.21991149,-0.031154128,0.051923547
57,0.5700000000000003,-0.57228947,-0.1390325,-0.8043762,-0.21991149,-0.031154128,0.051923547
58,0.5800000000000003,-0.6024742,-0.11640923,-0.8215113,-0.19547687,-0.07727446,0.11713341
59,0.5900000000000003,-0.500517,-0.123055965,-0.82773125,-0.18432859,-0.08323039,0.10995574
60,0.6000000000000003,-0.54490983,-0.12738548,-0.8739534,-0.19333886,-0.029626964,0.10720685
61,0.6100000000000003,-0.5662525,-0.14653294,-0.86809945,-0.19333886,-0.029626964,0.10720685
62,0.6200000000000003,-0.5662525,-0.14653294,-0.86809945,-0.23518312,-0.018936822,0.12644911
63,0.6300000000000003,-0.5950347,-0.12415359,-0.8325486,-0.2706133,-0.0421497,0.16417004
64,0.6400000000000003,-0.60314494,-0.0939689,-0.81888926,-0.24617869,-0.065209866,0.18280143
65,0.6500000000000004,-0.6055231,-0.032014064,-0.80943745,-0.15653422,-0.1085813,0.20189096
66,0.6600000000000004,-0.59649825,0.006524771,-0.8098033,-0.06688975,-0.14340061,0.2087632
67,0.6700000000000004,-0.5834487,0.035306938,-0.8154134,0.040011674,-0.17195857,0.20952678
68,0.6800000000000004,-0.57064307,0.040246252,-0.8334022,0.17348573,-0.16630806,0.2078469
69,0.6900000000000004,-0.56417924,0.035367917,-0.84053683,0.24190263,-0.14630222,0.20097467
70,0.7000000000000004,-0.5565569,0.00804925,-0.85620844,0.3323107,-0.09819659,0.18661933
71,0.7100000000000004,-0.5554592,-0.00219525,-0.86242837,0.36896262,-0.07971791,0.17944166
72,0.7200000000000004,-0.55576414,-0.026099084,-0.86748964,0.3837761,-0.08811731,0.17470746
73,0.7300000000000004,-0.55576414,-0.026099084,-0.86748964,0.3837761,-0.08811731,0.17470746
74,0.7400000000000004,-0.56344754,-0.06219875,-0.8607819,0.39645153,-0.124769226,0.1516473
75,0.7500000000000004,-0.55460554,-0.067503944,-0.86553836,0.41615194,-0.13683382,0.13591751
76,0.7600000000000005,-0.55460554,-0.067503944,-0.86553836,0.4382958,-0.14401148,0.12629639
77,0.7700000000000005,-0.5272259,-0.08939546,-0.90639436,0.44012842,-0.18310685,0.09101892
78,0.7800000000000005,-0.5100298,-0.1009815,-0.91291916,0.40973786,-0.19058995,0.063988134
79,0.7900000000000005,-0.50996876,-0.11317733,-0.9112727,0.3510948,-0.18616119,0.012217305
80,0.8000000000000005,-0.52375007,-0.112750486,-0.8977963,0.28527406,-0.18799378,-0.029932396
81,0.8100000000000005,-0.5366167,-0.10543298,-0.883893,0.28527406,-0.18799378,-0.029932396
82,0.8200000000000005,-0.54308045,-0.10061563,-0.8762097,0.20280726,-0.25442538,-0.093767814
83,0.8300000000000005,-0.5450928,-0.098603316,-0.86748964,0.19456059,-0.28023443,-0.11071932
84,0.8400000000000005,-0.5450928,-0.098603316,-0.86748964,0.19456059,-0.28023443,-0.11071932
85,0.8500000000000005,-0.51472515,-0.104152426,-0.83053625,0.21090123,-0.30451632,-0.15699236
86,0.8600000000000005,-0.50423676,-0.10354263,-0.80803496,0.21090123,-0.29229903,-0.15958855
87,0.8700000000000006,-0.50539535,-0.114701815,-0.78016746,0.18845193,-0.24617869,-0.16355917
88,0.8800000000000006,-0.51088345,-0.12976366,-0.75858086,0.18845193,-0.24617869,-0.16355917
89,0.8900000000000006,-0.5392997,-0.16586334,-0.7213836,0.15210545,-0.13408493,-0.15454891
90,0.9000000000000006,-0.5471661,-0.17513217,-0.71059024,0.14187345,-0.10354166,-0.14004086
91,0.9100000000000006,-0.57978994,-0.18214478,-0.71083415,0.13545936,-0.08032878,-0.10949759
92,0.9200000000000006,-0.5982056,-0.17940071,-0.7218104,0.12904528,-0.053603426,-0.09010262
93,0.9300000000000006,-0.6133285,-0.17366867,-0.72638386,0.12736541,-0.035124753,-0.053450707
94,0.9400000000000006,-0.61765796,-0.16836348,-0.7323598,0.12736541,-0.035124753,-0.053450707
95,0.9500000000000006,-0.60119367,-0.1478135,-0.7387626,0.11866058,-0.03268129,-0.021685716
96,0.9600000000000006,-0.5943639,-0.14677685,-0.73870164,0.1049161,-0.053450707,0.056505036
97,0.9700000000000006,-0.5943639,-0.14677685,-0.73870164,0.1049161,-0.053450707,0.056505036
98,0.9800000000000006,-0.5642402,-0.14122775,-0.7336404,0.114689946,-0.061850104,0.07376198
99,0.9900000000000007,-0.5424707,-0.17616881,-0.73979926,0.15928312,0.015271631,0.09086621
100,1.0000000000000007,-0.5426536,-0.19037697,-0.76498365,0.15928312,0.015271631,0.09086621
101,1.0100000000000007,-0.57344806,-0.20238985,-0.79974174,0.09636399,0.107665,0.04841107
102,1.0200000000000007,-0.57344806,-0.20238985,-0.79974174,0.09636399,0.107665,0.04841107
103,1.0300000000000007,-0.59814465,-0.21037814,-0.8120596,0.043676864,0.11453723,0.032223143
104,1.0400000000000007,-0.61985326,-0.19001108,-0.79644895,-0.01740966,0.10934488,0.014660766
105,1.0500000000000007,-0.6016815,-0.15281379,-0.78309447,-0.034208454,0.071318515,0.014813482
106,1.0600000000000007,-0.5714358,-0.13366634,-0.79370487,-0.008552114,0.06169739,0.025961773
107,1.0700000000000007,-0.5714358,-0.13366634,-0.79370487,0.00992656,0.065515295,0.021227567
108,1.0800000000000007,-0.5294821,-0.12903193,-0.8055348,0.019700404,0.06307184,0.015118915
109,1.0900000000000007,-0.5053344,-0.15037462,-0.81919414,0.018478673,0.06307184,0.016340645
110,1.1000000000000008,-0.51905465,-0.1797666,-0.84382975,-0.023365596,0.06658431,0.03436117
111,1.1100000000000008,-0.52381104,-0.18714507,-0.85157406,-0.056352317,0.054061573,0.036651913
112,1.1200000000000008,-0.54125106,-0.18336436,-0.8600502,-0.0795652,0.05024367,0.032986723
113,1.1300000000000008,-0.5578984,-0.17086363,-0.8637699,-0.093004234,0.06612616,0.015577064
114,1.1400000000000008,-0.58088756,-0.17482726,-0.8493789,-0.08811731,0.08200866,0.0021380284
115,1.1500000000000008,-0.58088756,-0.17482726,-0.8493789,-0.08811731,0.08200866,0.0021380284
116,1.1600000000000008,-0.5839365,-0.18549863,-0.8336462,-0.06352998,0.07727446,-0.0050396384
117,1.1700000000000008,-0.5880221,-0.22440335,-0.79132664,-0.03680463,0.087201014,0.007330383
118,1.1800000000000008,-0.5936322,-0.21623214,-0.8197429,-0.03680463,0.087201014,0.007330383
119,1.1900000000000008,-0.5936322,-0.21623214,-0.8197429,-0.04550946,0.08964448,0.02687807
120,1.2000000000000008,-0.59747386,-0.19391376,-0.83956116,-0.06872234,0.07971791,0.035277467
121,1.2100000000000009,-0.59747386,-0.19391376,-0.83956116,-0.06872234,0.07971791,0.035277467
122,1.2200000000000009,-0.59747386,-0.19391376,-0.83956116,-0.06872234,0.07971791,0.035277467
123,1.2300000000000009,-0.5133836,-0.07884607,-0.83571947,-0.106595986,0.07574729,0.020463986
124,1.2400000000000009,-0.5073467,-0.07774844,-0.8064495,-0.09941832,0.12461651,-0.01160644
125,1.2500000000000009,-0.51905465,-0.102140106,-0.7906559,-0.088422745,0.13316862,-0.025045475
126,1.260000000000001,-0.5309456,-0.13439809,-0.7981563,-0.09330966,0.13439035,-0.029932396
127,1.270000000000001,-0.5510687,-0.17354672,-0.8144987,-0.10552697,0.12812899,-0.026267206
128,1.280000000000001,-0.5510687,-0.17354672,-0.8144987,-0.10552697,0.12812899,-0.026267206
129,1.290000000000001,-0.5776557,-0.2172078,-0.8551108,-0.12705997,0.07437284,-0.03359759
130,1.300000000000001,-0.57710683,-0.21239044,-0.86639196,-0.15882497,0.060628377,-0.044745877
131,1.310000000000001,-0.57881427,-0.18604743,-0.860416,-0.19058995,0.06291912,-0.058337633
132,1.320000000000001,-0.5632036,-0.14055698,-0.8364513,-0.22831088,0.04550946,-0.069485925
133,1.330000000000001,-0.53984857,-0.117384896,-0.7984612,-0.24037547,0.032070424,-0.07941248
134,1.340000000000001,-0.5345434,-0.122202255,-0.7857166,-0.22220223,0.052839845,-0.07803804
135,1.350000000000001,-0.53838503,-0.12805626,-0.79150957,-0.21029036,0.08231409,-0.07086037
136,1.360000000000001,-0.55283713,-0.14037405,-0.8022419,-0.21410827,0.09208794,-0.036651913
137,1.370000000000001,-0.55283713,-0.14037405,-0.8022419,-0.21410827,0.09208794,-0.036651913
138,1.380000000000001,-0.5582643,-0.13988622,-0.7915706,-0.20540343,0.06047566,-0.025350908
139,1.390000000000001,-0.54960525,-0.11890938,-0.796144,-0.105832405,-0.012064588,0.010995574
140,1.400000000000001,-0.53875095,-0.10915271,-0.81754774,-0.105832405,-0.012064588,0.010995574
141,1.410000000000001,-0.532714,-0.097017854,-0.8386465,-0.034972034,-0.0018325958,0.021227567
142,1.420000000000001,-0.532714,-0.097017854,-0.8386465,-0.034972034,-0.0018325958,0.021227567
143,1.430000000000001,-0.5407023,-0.10232304,-0.8191332,-0.015118915,-0.032223143,0.027488936
144,1.440000000000001,-0.5388119,-0.11397006,-0.8068154,0.0106901415,-0.04795292,0.027794369
145,1.450000000000001,-0.53533614,-0.11933623,-0.80669343,0.03268129,-0.05024367,0.030390546
146,1.460000000000001,-0.5322872,-0.109640546,-0.82870686,0.04734206,-0.041691553,0.0364992
147,1.470000000000001,-0.54484886,-0.09274931,-0.8480373,0.05085453,-0.030695979,0.04138612
148,1.480000000000001,-0.5633255,-0.07823627,-0.86450166,0.061850104,-0.029321533,0.05131268
149,1.490000000000001,-0.56917953,-0.07488242,-0.8651115,0.08017606,-0.034055736,0.05879578
150,1.500000000000001,-0.57735074,-0.094456725,-0.8620015,0.1255328,-0.034972034,0.0627664
151,1.5100000000000011,-0.59320533,-0.12915388,-0.8666359,0.1572978,-0.015271631,0.05421429
152,1.5200000000000011,-0.5980227,-0.13939838,-0.8626113,0.14996742,-0.004428773,0.04444045
153,1.5300000000000011,-0.60119367,-0.1408009,-0.8392563,0.110872045,-0.00580322,0.025809057
154,1.5400000000000011,-0.59857154,-0.13238578,-0.8115718,0.10598512,-0.0096211275,0.017256944
155,1.5500000000000012,-0.6124138,-0.110860124,-0.7563856,0.14767668,0.0053450707,-0.0009162979
156,1.5600000000000012,-0.6124138,-0.110860124,-0.7563856,0.14767668,0.0053450707,-0.0009162979
157,1.5700000000000012,-0.62991476,-0.093481064,-0.7723621,0.2941316,0.041691553,0.03894266
158,1.5800000000000012,-0.5821681,-0.10451829,-0.8146817,0.3297145,0.0041233404,0.06994407
159,1.5900000000000012,-0.5392388,-0.1629973,-0.87883174,0.2509129,-0.073303826,0.05024367
160,1.6000000000000012,-0.5283235,-0.18921836,-0.8832222,0.17379116,-0.06887506,0.034972034
161,1.6100000000000012,-0.5283235,-0.18921836,-0.8832222,0.17379116,-0.06887506,0.034972034
162,1.6200000000000012,-0.49954134,-0.16647314,-0.83937824,0.09117164,0.014813482,0.008399397
163,1.6300000000000012,-0.4972851,-0.16110696,-0.834073,0.0936151,0.023365596,0.008399397
164,1.6400000000000012,-0.50631005,-0.12104365,-0.7868752,0.13347405,0.067500606,0.032986723
165,1.6500000000000012,-0.5084443,-0.08677336,-0.7380918,0.22113322,0.102319926,0.08231409
166,1.6600000000000013,-0.5084443,-0.08677336,-0.7380918,0.22113322,0.102319926,0.08231409
167,1.6700000000000013,-0.5049075,-0.107201375,-0.7354088,0.3089451,0.09330966,0.15882497
168,1.6800000000000013,-0.5116152,-0.115555525,-0.74754363,0.29794952,0.07971791,0.17470746
169,1.6900000000000013,-0.5116152,-0.115555525,-0.74754363,0.29794952,0.07971791,0.17470746
170,1.7000000000000013,-0.5116152,-0.115555525,-0.74754363,0.29794952,0.07971791,0.17470746
171,1.7100000000000013,-0.64418393,-0.14592315,-0.8244993,0.19364429,-0.03680463,0.15241088
172,1.7200000000000013,-0.6389397,-0.131715,-0.8236456,0.20372356,-0.061239243,0.14156802
173,1.7300000000000013,-0.59729093,-0.10610375,-0.8099253,0.24785857,-0.05971208,0.11255192
174,1.7400000000000013,-0.56436217,-0.095615335,-0.79852223,0.268628,-0.01450805,0.0842994
175,1.7500000000000013,-0.5465563,-0.117811754,-0.75906867,0.268628,-0.01450805,0.0842994
176,1.7600000000000013,-0.5465563,-0.117811754,-0.75906867,0.26221392,0.02321288,0.064599
177,1.7700000000000014,-0.54759294,-0.14452063,-0.7358356,0.25717425,0.069485925,0.04596761
178,1.7800000000000014,-0.5567398,-0.17933974,-0.77791125,0.23396139,0.063224554,0.03604105
179,1.7900000000000014,-0.5570447,-0.193182,-0.837183,0.19501872,0.026419923,0.03726278
180,1.8000000000000014,-0.54143405,-0.20391434,-0.88127095,0.13179417,-0.025198191,0.025961773
181,1.8100000000000014,-0.5279576,-0.20056048,-0.91432166,0.082924955,-0.0364992,0.014660766
182,1.8200000000000014,-0.51673746,-0.19220634,-0.91962683,0.082924955,-0.0364992,0.014660766
183,1.8300000000000014,-0.51673746,-0.19220634,-0.91962683,-0.007941248,0.014049901,-0.014202617
184,1.8400000000000014,-0.49838275,-0.17629078,-0.8612088,-0.060628377,0.04062254,-0.042760566
185,1.8500000000000014,-0.5091151,-0.17232713,-0.8140719,-0.0936151,0.047647487,-0.056505036
186,1.8600000000000014,-0.52234757,-0.17805916,-0.75809306,-0.11438452,0.04260785,-0.06383542
187,1.8700000000000014,-0.53125054,-0.18049833,-0.740592,-0.10827587,0.035277467,-0.06627888
188,1.8800000000000014,-0.51996934,-0.1853157,-0.746263,-0.093462385,0.02687807,-0.061239243
189,1.8900000000000015,-0.523872,-0.18403512,-0.79309505,-0.08384126,0.027030786,-0.047800206
190,1.9000000000000015,-0.5419829,-0.1837912,-0.84590304,-0.10705414,0.030543262,-0.038179077
191,1.9100000000000015,-0.54741,-0.19177948,-0.8770634,-0.13637567,0.012064588,-0.034513887
192,1.9200000000000015,-0.5564349,-0.1972676,-0.8951132,-0.1742493,-0.00290161,-0.032223143
193,1.9300000000000015,-0.5570447,-0.1908648,-0.8859663,-0.21700987,-0.011759156,-0.04230242
194,1.9400000000000015,-0.5497882,-0.16098501,-0.8482203,-0.22418754,-0.011759156,-0.063224554
195,1.9500000000000015,-0.5497882,-0.16098501,-0.8482203,-0.21563543,-0.011759156,-0.07040222
196,1.9600000000000015,-0.541373,-0.14476454,-0.8259628,-0.21563543,-0.011759156,-0.07040222
197,1.9700000000000015,-0.53911686,-0.13982524,-0.8084008,-0.16783522,-0.015118915,-0.07498371
198,1.9800000000000015,-0.53911686,-0.13982524,-0.8084008,-0.16783522,-0.015118915,-0.07498371
199,1.9900000000000015,-0.5528981,-0.17214419,-0.8257189,-0.15561792,-0.008857546,-0.06887506
200,2.0000000000000013,-0.5781435,-0.22306179,-0.85212296,-0.22342396,0.037110064,-0.07192938
201,2.010000000000001,-0.58887583,-0.2294646,-0.8482812,-0.22342396,0.037110064,-0.07192938
202,2.020000000000001,-0.60405964,-0.20068243,-0.81175464,-0.2759584,0.034208454,-0.0795652
203,2.0300000000000007,-0.6104625,-0.19141361,-0.80852276,-0.3454443,-0.00045814895,-0.095753126
204,2.0400000000000005,-0.57387495,-0.115006715,-0.75595874,-0.33399057,-0.057726767,-0.08445212
205,2.0500000000000003,-0.5542397,-0.08366342,-0.7419945,-0.27763826,-0.075594574,-0.0729984
206,2.06,-0.52496964,-0.083480485,-0.74272627,-0.18478674,-0.050549097,-0.050549097
207,2.07,-0.5155179,-0.09616415,-0.7565685,-0.12507465,-0.019700404,-0.03924809
208,2.0799999999999996,-0.52490866,-0.12647079,-0.77285,-0.08399397,0.029474247,-0.014660766
209,2.0899999999999994,-0.5539957,-0.15055756,-0.7782161,-0.07452556,0.06612616,0.0035124752
210,2.099999999999999,-0.57771665,-0.18092519,-0.7766307,-0.09789115,0.052687127,0.021838432
211,2.109999999999999,-0.59265655,-0.2004995,-0.7809602,-0.10751228,0.03176499,0.024281893
212,2.1199999999999988,-0.6021693,-0.20696329,-0.7994369,-0.10751228,0.03176499,0.024281893
213,2.1299999999999986,-0.5907052,-0.17244908,-0.8465737,-0.15653422,0.044898596,0.01160644
214,2.1399999999999983,-0.5907052,-0.17244908,-0.8465737,-0.15653422,0.044898596,0.01160644
215,2.149999999999998,-0.5771678,-0.15580177,-0.8441956,-0.1685988,0.03023783,0.007941248
216,2.159999999999998,-0.56210595,-0.14104481,-0.8476104,-0.17134771,0.035124753,0.03970624
217,2.1699999999999977,-0.56210595,-0.14104481,-0.8476104,-0.17134771,0.035124753,0.03970624
218,2.1799999999999975,-0.56210595,-0.14104481,-0.8476104,-0.17134771,0.035124753,0.03970624
219,2.1899999999999973,-0.50185853,-0.10317675,-0.8533425,-0.061239243,0.04810564,0.05757405
220,2.199999999999997,-0.51015174,-0.110067405,-0.8465128,-0.05879578,0.04932737,0.05879578
221,2.209999999999997,-0.5228354,-0.11842154,-0.84315896,-0.05513059,0.050549097,0.056352317
222,2.2199999999999966,-0.5320433,-0.124336526,-0.8441346,-0.05513059,0.055436023,0.05513059
223,2.2299999999999964,-0.54167795,-0.124885336,-0.85492796,-0.051465396,0.050549097,0.047800206
224,2.239999999999996,-0.54600745,-0.11665315,-0.8628552,-0.051465396,0.050549097,0.047800206
225,2.249999999999996,-0.54899544,-0.11567748,-0.8609649,-0.03634648,0.01038471,0.03940081
226,2.259999999999996,-0.5524103,-0.120067984,-0.8580378,-0.03634648,0.01038471,0.03940081
227,2.2699999999999956,-0.55533725,-0.11573846,-0.8600502,0.0030543262,-0.012675454,0.04230242
228,2.2799999999999954,-0.55893505,-0.09281029,-0.8506594,0.028710667,-0.027030786,0.048563786
229,2.289999999999995,-0.55893505,-0.09281029,-0.8506594,0.05467244,-0.05375614,0.059864793
230,2.299999999999995,-0.5543006,-0.08055348,-0.8346828,0.05467244,-0.05375614,0.059864793
231,2.3099999999999947,-0.5584472,-0.07421165,-0.81675494,0.08399397,-0.057268616,0.06001751
232,2.3199999999999945,-0.57314324,-0.08055348,-0.8036444,0.16264287,-0.07620544,0.066737026
233,2.3299999999999943,-0.57314324,-0.08055348,-0.8036444,0.16264287,-0.07620544,0.066737026
234,2.339999999999994,-0.58180225,-0.090371124,-0.80852276,0.1908954,-0.09315695,0.069485925
235,2.349999999999994,-0.5798509,-0.11921428,-0.8441956,0.23304509,-0.1600467,0.06627888
236,2.3599999999999937,-0.5846682,-0.11293342,-0.8487081,0.23304509,-0.1600467,0.06627888
237,2.3699999999999934,-0.5905222,-0.098420374,-0.8591355,0.23197608,-0.18081611,0.05299256
238,2.3799999999999932,-0.59338826,-0.08726119,-0.8739534,0.2770274,-0.25381452,-0.0076358155
239,2.389999999999993,-0.57588726,-0.08274873,-0.8728558,0.28221974,-0.2733622,-0.023365596
240,2.399999999999993,-0.55814236,-0.08591965,-0.8385246,0.28603765,-0.28680122,-0.03924809
241,2.4099999999999926,-0.55814236,-0.08591965,-0.8385246,0.28603765,-0.28680122,-0.03924809
242,2.4199999999999924,-0.56503296,-0.12634884,-0.804986,0.29718593,-0.29046643,-0.05131268
243,2.429999999999992,-0.5717407,-0.13909347,-0.810718,0.28955013,-0.22586742,-0.07498371
244,2.439999999999992,-0.57527745,-0.16885132,-0.82888985,0.23151793,-0.16523905,-0.09392053
245,2.4499999999999917,-0.57320416,-0.17958365,-0.8346219,0.16630806,-0.102319926,-0.11178834
246,2.4599999999999915,-0.57320416,-0.17958365,-0.8346219,0.16630806,-0.102319926,-0.11178834
247,2.4699999999999913,-0.58113146,-0.18159597,-0.8239506,0.044593163,-0.016340645,-0.14462234
248,2.479999999999991,-0.591315,-0.15037462,-0.79760754,0.04337143,-0.018784106,-0.150731
249,2.489999999999991,-0.56070346,-0.124336526,-0.80346155,0.09010262,-0.05390886,-0.13561209
250,2.4999999999999907,-0.5128958,-0.1211656,-0.807913,0.10216721,-0.043982297,-0.12217305
251,2.5099999999999905,-0.48954073,-0.13702019,-0.7952903,0.095753126,-0.014660766,-0.11499538
252,2.5199999999999902,-0.48960173,-0.16958307,-0.7680936,0.069791354,0.019242255,-0.10430524
253,2.52999999999999,-0.53692156,-0.23995303,-0.72333485,0.040011674,0.032528576,-0.07147124
254,2.53999999999999,-0.53692156,-0.23995303,-0.72333485,0.040011674,0.032528576,-0.07147124
255,2.5499999999999896,-0.5763141,-0.23531862,-0.7369942,0.025045475,0.039858956,-0.040927973
256,2.5599999999999894,-0.58259493,-0.20379238,-0.7593736,-0.0018325958,0.03970624,-0.028863383
257,2.569999999999989,-0.58259493,-0.20379238,-0.7593736,-0.026419923,0.02611449,-0.019242255
258,2.579999999999989,-0.5494223,-0.13970327,-0.74955595,-0.050701816,-0.009315695,0.010079277
259,2.5899999999999888,-0.5494223,-0.13970327,-0.74955595,-0.050701816,-0.009315695,0.010079277
260,2.5999999999999885,-0.5055173,-0.10134738,-0.72912794,-0.017715093,-0.035888333,0.03863723
261,2.6099999999999883,-0.5373484,-0.14592315,-0.7362015,0.052839845,0.002443461,0.08903361
262,2.619999999999988,-0.5080174,-0.14964288,-0.74028707,0.08689558,0.023365596,0.10629055
263,2.629999999999988,-0.51088345,-0.15598471,-0.7431531,0.09911288,0.029626964,0.10873401
264,2.6399999999999877,-0.5539957,-0.18360828,-0.75833696,0.14034629,0.05681047,0.124769226
265,2.6499999999999875,-0.5539957,-0.18360828,-0.75833696,0.14034629,0.05681047,0.124769226
266,2.6599999999999873,-0.5957055,-0.16171674,-0.84139055,0.0795652,-0.03023783,0.16508633
267,2.669999999999987,-0.59222966,-0.15830192,-0.8511472,0.055283304,-0.048716504,0.1516473
268,2.679999999999987,-0.59222966,-0.15830192,-0.8511472,0.025809057,-0.027030786,0.12568553
269,2.6899999999999866,-0.54893446,-0.20293866,-0.8598672,0.018325957,0.020463986,0.089949906
270,2.6999999999999864,-0.5511297,-0.228306,-0.8717582,0.0022907446,0.06795876,0.0627664
271,2.709999999999986,-0.553142,-0.23855051,-0.8609649,-0.031001411,0.111635625,0.042760566
272,2.719999999999986,-0.5728383,-0.22720838,-0.7945585,-0.076358154,0.12965615,0.027794369
273,2.7299999999999858,-0.5789972,-0.19604802,-0.7857166,-0.17195857,0.1339322,0.020922136
274,2.7399999999999856,-0.5789972,-0.19604802,-0.7857166,-0.17195857,0.1339322,0.020922136
275,2.7499999999999853,-0.5742408,-0.15561883,-0.79833925,-0.2087632,0.12889257,0.02443461
276,2.759999999999985,-0.5724114,-0.12634884,-0.80065644,-0.19257528,0.1020145,0.029626964
277,2.769999999999985,-0.5666794,-0.09372498,-0.8068154,-0.13591751,0.06093381,0.036193766
278,2.7799999999999847,-0.5651549,-0.09372498,-0.8131572,-0.11133019,0.042760566,0.03894266
279,2.7899999999999845,-0.5637524,-0.11281146,-0.8479763,-0.11133019,0.042760566,0.03894266
280,2.7999999999999843,-0.5572277,-0.12061679,-0.8590135,-0.030085113,-0.004276057,0.038331795
281,2.809999999999984,-0.5572277,-0.12061679,-0.8590135,-0.030085113,-0.004276057,0.038331795
282,2.819999999999984,-0.54216576,-0.13561767,-0.8484642,-0.040011674,0.012675454,0.024740042
283,2.8299999999999836,-0.5564349,-0.149277,-0.8245603,-0.057268616,0.04795292,0.008552114
284,2.8399999999999834,-0.56924057,-0.149277,-0.81199855,-0.06612616,0.06994407,0.010842858
285,2.849999999999983,-0.5566178,-0.13750802,-0.8174257,-0.080634214,0.06246097,0.0022907446
286,2.859999999999983,-0.54667825,-0.13702019,-0.8324266,-0.095294975,0.06963864,-0.010079277
287,2.869999999999983,-0.5514956,-0.13122717,-0.84230524,-0.095294975,0.06963864,-0.010079277
288,2.8799999999999826,-0.55051994,-0.13269067,-0.8441956,-0.11591168,0.058490347,-0.033444874
289,2.8899999999999824,-0.55600804,-0.15769213,-0.86541635,-0.1133155,0.043829583,-0.03573562
290,2.899999999999982,-0.56460613,-0.1694611,-0.8736486,-0.1330159,0.04260785,-0.037110064
291,2.909999999999982,-0.57978994,-0.17342475,-0.86785555,-0.16722436,0.03863723,-0.03970624
292,2.9199999999999817,-0.59954715,-0.17049775,-0.8374269,-0.20754147,0.02977968,-0.05100725
293,2.9299999999999815,-0.5937542,-0.10250599,-0.7738866,-0.20708331,-0.004428773,-0.08017606
294,2.9399999999999813,-0.56545985,-0.064272046,-0.75504404,-0.15653422,-0.04184427,-0.089491755
295,2.949999999999981,-0.5283845,-0.055308107,-0.7630933,-0.15653422,-0.04184427,-0.089491755
296,2.959999999999981,-0.5107005,-0.08116327,-0.80693734,0.029626964,-0.040775254,-0.07727446
297,2.9699999999999807,-0.5107005,-0.08116327,-0.80693734,0.029626964,-0.040775254,-0.07727446
298,2.9799999999999804,-0.50899315,-0.09537142,-0.8247433,0.043982297,-0.0125227375,-0.06627888
299,2.9899999999999802,-0.57728976,-0.17860797,-0.81956,-0.01786781,0.03481932,-0.025350908
300,2.99999999999998,-0.6018034,-0.18891345,-0.7977295,-0.021380283,0.020158553,-0.022907447
301,3.00999999999998,-0.6254633,-0.18068127,-0.77565503,-0.003970624,-0.013897184,-0.01282817
302,3.0199999999999796,-0.6250365,-0.17147341,-0.7782161,-0.003970624,-0.013897184,-0.01282817
303,3.0299999999999794,-0.588327,-0.14403279,-0.8054738,0.06612616,-0.058643065,-0.002443461
304,3.039999999999979,-0.5760702,-0.14153264,-0.81559634,0.09682214,-0.07437284,0.003970624
305,3.049999999999979,-0.5702772,-0.14244732,-0.81212056,0.10888673,-0.071776666,0.014966198
306,3.0599999999999787,-0.564972,-0.14677685,-0.80468106,0.12095132,-0.05955936,0.02733622
307,3.0699999999999785,-0.5580813,-0.1516552,-0.8074861,0.12705997,-0.055741455,0.033444874
308,3.0799999999999783,-0.5511297,-0.15116736,-0.81620616,0.13423763,-0.05085453,0.04810564
309,3.089999999999978,-0.5496662,-0.14433768,-0.8201698,0.1366811,-0.04718934,0.055436023
310,3.099999999999978,-0.5434463,-0.13208087,-0.8202918,0.15012014,-0.045814894,0.069027774
311,3.1099999999999777,-0.538568,-0.13012955,-0.82267,0.15012014,-0.045814894,0.069027774
312,3.1199999999999775,-0.5403974,-0.13988622,-0.82888985,0.14752395,-0.023823744,0.055436023
313,3.1299999999999772,-0.5403974,-0.13988622,-0.82888985,0.14752395,-0.023823744,0.055436023
314,3.139999999999977,-0.5403974,-0.13988622,-0.82888985,0.14752395,-0.023823744,0.055436023
315,3.149999999999977,-0.59863245,-0.18751094,-0.8259628,0.01282817,-0.010079277,0.019089539
316,3.1599999999999766,-0.59863245,-0.18751094,-0.8259628,0.01282817,-0.010079277,0.019089539
317,3.1699999999999764,-0.6086331,-0.17677861,-0.8076691,-0.02367103,-0.017715093,-0.006872234
318,3.179999999999976,-0.58332676,-0.12342183,-0.7813261,-0.01863139,-0.025045475,-0.016493361
319,3.189999999999976,-0.54283655,-0.06518673,-0.7752892,0.045356743,-0.033292156,-0.04550946
320,3.1999999999999758,-0.5272868,-0.05725944,-0.7723012,0.099265605,-0.0364992,-0.049938235
321,3.2099999999999755,-0.5222866,-0.068479605,-0.7804114,0.14813483,-0.027641652,-0.040011674
322,3.2199999999999753,-0.5222866,-0.068479605,-0.7804114,0.1611157,0.011453724,-0.015577064
323,3.229999999999975,-0.5638134,-0.158058,-0.81675494,0.106901415,0.03313944,0.0061086523
324,3.239999999999975,-0.5821071,-0.18885247,-0.81852335,0.07147124,0.02565634,0.011911872
325,3.2499999999999747,-0.6116211,-0.22367159,-0.8207796,0.026267206,0.016798794,0.0056505036
326,3.2599999999999745,-0.61948735,-0.2280621,-0.8091326,0.01038471,0.01786781,-0.004276057
327,3.2699999999999743,-0.6109503,-0.20799993,-0.7966318,0.01786781,0.016646078,-0.020158553
328,3.279999999999974,-0.59698606,-0.17622979,-0.79833925,0.027641652,0.02031127,-0.032375857
329,3.289999999999974,-0.5699113,-0.137569,-0.8034005,0.04352415,0.027794369,-0.043218717
330,3.2999999999999736,-0.55100775,-0.11890938,-0.79809535,0.0571159,0.025350908,-0.04810564
331,3.3099999999999734,-0.535641,-0.10366459,-0.78839964,0.09743301,0.02321288,-0.018478673
332,3.319999999999973,-0.51576185,-0.102566965,-0.7774844,0.09743301,0.02321288,-0.018478673
333,3.329999999999973,-0.5136885,-0.11476279,-0.7836433,0.113162786,0.018478673,0.0
334,3.3399999999999728,-0.5549104,-0.207817,-0.8491959,0.122783914,0.033292156,0.02687807
335,3.3499999999999726,-0.5780825,-0.23135497,-0.8569402,-0.0076358155,0.10934488,0.016035212
336,3.3599999999999723,-0.5996691,-0.22367159,-0.8426101,-0.08582657,0.111177474,-0.012675454
337,3.369999999999972,-0.6009497,-0.20165811,-0.8253531,-0.08582657,0.111177474,-0.012675454
338,3.379999999999972,-0.6009497,-0.20165811,-0.8253531,-0.10888673,0.100029185,-0.029932396
339,3.3899999999999717,-0.5778996,-0.17421748,-0.8084008,-0.09896017,0.098807454,-0.06154467
340,3.3999999999999715,-0.56527686,-0.16580236,-0.80693734,-0.08536842,0.1001819,-0.072540246
341,3.4099999999999713,-0.4935044,-0.13427612,-0.8387685,-0.07544186,0.07819075,-0.07971791
342,3.419999999999971,-0.48722354,-0.13519081,-0.834256,-0.07544186,0.07819075,-0.07971791
343,3.429999999999971,-0.5019805,-0.1381788,-0.81736475,-0.1160644,0.09758572,-0.06536258
344,3.4399999999999706,-0.5075906,-0.14153264,-0.79199743,-0.12599096,0.10598512,-0.054367006
345,3.4499999999999704,-0.5172863,-0.16153382,-0.78358227,-0.107665,0.100029185,-0.044593163
346,3.45999999999997,-0.5248477,-0.18013246,-0.7965709,-0.100334615,0.09407325,-0.02977968
347,3.46999999999997,-0.5296041,-0.18604743,-0.8043762,-0.10644327,0.08674286,-0.021227567
348,3.47999999999997,-0.5309456,-0.18513274,-0.81803554,-0.15042557,0.064446285,-0.01160644
349,3.4899999999999696,-0.5441171,-0.1676927,-0.8266336,-0.17119499,0.049632803,-0.008093964
350,3.4999999999999694,-0.5514346,-0.155131,-0.8351707,-0.17592919,0.04718934,-0.014202617
351,3.509999999999969,-0.55484945,-0.14006914,-0.8441346,-0.1797471,0.058184914,-0.02397646
352,3.519999999999969,-0.55832523,-0.12836114,-0.8467567,-0.18707748,0.05681047,-0.026572637
353,3.5299999999999687,-0.54661727,-0.10677453,-0.8113278,-0.19303341,0.040927973,-0.027641652
354,3.5399999999999685,-0.54661727,-0.10677453,-0.8113278,-0.18677205,0.034972034,-0.033750303
355,3.5499999999999683,-0.5613132,-0.17147341,-0.7595565,-0.16600263,0.039858956,-0.03970624
356,3.559999999999968,-0.5613132,-0.17147341,-0.7595565,-0.1441642,0.0693332,-0.0421497
357,3.569999999999968,-0.59741294,-0.2250741,-0.82846296,-0.1740966,0.15332718,-0.05497787
358,3.5799999999999677,-0.61174303,-0.22379355,-0.8578549,-0.24648413,0.18219055,-0.07269296
359,3.5899999999999674,-0.6181458,-0.19897503,-0.86651397,-0.29428434,0.18310685,-0.08277224
360,3.5999999999999672,-0.6181458,-0.19897503,-0.86651397,-0.29428434,0.18310685,-0.08277224
361,3.609999999999967,-0.5878392,-0.10366459,-0.8332194,-0.29428434,0.18310685,-0.08277224
362,3.619999999999967,-0.5878392,-0.10366459,-0.8332194,-0.29428434,0.18310685,-0.08277224
363,3.6299999999999666,-0.46764925,-0.07122366,-0.82901174,-0.15683965,-0.028405234,-0.051618114
364,3.6399999999999664,-0.42368326,-0.08415125,-0.8323047,-0.16187929,-0.0053450707,-0.0664316
365,3.649999999999966,-0.41831708,-0.09768862,-0.8243164,-0.18417588,0.049480084,-0.079107046
366,3.659999999999966,-0.4318545,-0.11726294,-0.8232187,-0.21044308,0.110413894,-0.081855945
367,3.6699999999999657,-0.4642954,-0.125861,-0.83998805,-0.2499966,0.17119499,-0.07880162
368,3.6799999999999655,-0.48746744,-0.12604393,-0.86218446,-0.2770274,0.16600263,-0.07895433
369,3.6899999999999653,-0.5781435,-0.13305654,-0.90639436,-0.3475823,0.10949759,-0.09132435
370,3.699999999999965,-0.5781435,-0.13305654,-0.90639436,-0.3475823,0.10949759,-0.09132435
371,3.709999999999965,-0.6232071,-0.13573962,-0.88242954,-0.31505376,0.05222898,-0.13255776
372,3.7199999999999647,-0.64253753,-0.10445731,-0.8230359,-0.2855795,0.051159963,-0.12736541
373,3.7299999999999645,-0.6208899,-0.08573671,-0.8011443,-0.2574797,0.047800206,-0.10522154
374,3.7399999999999642,-0.6208899,-0.08573671,-0.8011443,-0.2574797,0.047800206,-0.10522154
375,3.749999999999964,-0.5783874,-0.07366284,-0.7716304,-0.19517145,0.03481932,-0.070554934
376,3.759999999999964,-0.48356482,-0.04530752,-0.7617518,-0.035888333,0.007788532,-0.04734206
377,3.7699999999999636,-0.4732593,-0.039392542,-0.7777893,-0.035888333,0.007788532,-0.04734206
378,3.7799999999999634,-0.48472342,-0.04408794,-0.84315896,0.036193766,0.044745877,-0.045814894
379,3.789999999999963,-0.48826018,-0.06518673,-0.8702337,0.024892759,0.058184914,-0.030085113
380,3.799999999999963,-0.48551616,-0.08860273,-0.8865151,0.024892759,0.058184914,-0.030085113
381,3.8099999999999627,-0.5130178,-0.10634767,-0.90310144,0.008857546,0.049632803,-0.009315695
382,3.8199999999999625,-0.5565569,-0.13445906,-0.91883403,-0.012064588,0.06291912,-0.0070249503
383,3.8299999999999623,-0.57363105,-0.14671588,-0.9120045,-0.027947085,0.07009678,-0.020616703
384,3.839999999999962,-0.5978397,-0.15305771,-0.8736486,-0.03863723,0.061391957,-0.05131268
385,3.849999999999962,-0.5978397,-0.15305771,-0.8736486,-0.027183503,0.02611449,-0.091477074
386,3.8599999999999617,-0.5899125,-0.08354146,-0.7794357,0.010995574,0.005497787,-0.088728175
387,3.8699999999999615,-0.5629597,-0.043356188,-0.7689473,0.061086524,0.0022907446,-0.06261369
388,3.8799999999999613,-0.47258857,-0.033111688,-0.79736364,0.19685133,-0.0016798794,-0.021380283
389,3.889999999999961,-0.48569906,-0.10134738,-0.9092604,0.2602286,0.021838432,-0.008857546
390,3.899999999999961,-0.48569906,-0.10134738,-0.9092604,0.20845777,0.05207626,0.017562376
391,3.9099999999999606,-0.4791133,-0.1422644,-0.9115776,0.20845777,0.05207626,0.017562376
392,3.9199999999999604,-0.48344287,-0.19385278,-0.8832832,0.13652839,0.005192355,0.00870483
393,3.92999999999996,-0.4920409,-0.16927817,-0.81687695,0.08933904,-0.057268616,-0.0096211275
394,3.93999999999996,-0.5488735,-0.16921718,-0.84084177,0.087964594,-0.04016439,0.00015271631
395,3.9499999999999598,-0.5488735,-0.16921718,-0.84084177,0.087964594,-0.04016439,0.00015271631
396,3.9599999999999596,-0.5010049,-0.089517415,-0.8481592,0.089186326,-0.031612277,-0.009773844
397,3.9699999999999593,-0.47679612,-0.0951275,-0.8268775,0.10262536,-0.026725354,-0.0010690142
398,3.979999999999959,-0.47691807,-0.115555525,-0.8061446,0.114689946,-0.0106901415,0.0038179078
399,3.989999999999959,-0.49143112,-0.134642,-0.80022967,0.10842858,0.011148291,0.0061086523
400,3.9999999999999587,-0.50155365,-0.15763116,-0.8068154,0.084910266,0.021991149,0.0096211275
401,4.009999999999959,-0.50155365,-0.15763116,-0.8068154,0.06291912,0.019394971,0.009468411
402,4.019999999999959,-0.5643012,-0.25562465,-0.85163504,0.0067195175,0.010537425,0.01160644
403,4.0299999999999585,-0.5789362,-0.2537953,-0.85224485,-0.062002823,0.027183503,0.0062613687
404,4.039999999999958,-0.5730822,-0.21318316,-0.8180965,-0.100029185,0.02687807,-0.0013744468
405,4.049999999999958,-0.55552024,-0.17208321,-0.80285174,-0.11071932,-0.012217305,0.004886922
406,4.059999999999958,-0.5202743,-0.13964228,-0.79169255,-0.099571034,-0.04627304,0.016035212
407,4.069999999999958,-0.4922848,-0.112140685,-0.781509,-0.047036625,-0.034972034,0.045662176
408,4.079999999999957,-0.4922848,-0.112140685,-0.781509,-0.047036625,-0.034972034,0.045662176
409,4.089999999999957,-0.4922848,-0.112140685,-0.781509,-0.047036625,-0.034972034,0.045662176
410,4.099999999999957,-0.4929556,-0.15622863,-0.8360244,-0.047036625,-0.034972034,0.045662176
411,4.109999999999957,-0.53350675,-0.20714624,-0.84358585,-0.116217114,0.019700404,0.06704246
412,4.119999999999957,-0.54399514,-0.18720604,-0.831268,-0.19211712,0.02397646,0.045814894
413,4.129999999999956,-0.54399514,-0.18720604,-0.831268,-0.19211712,0.02397646,0.045814894
414,4.139999999999956,-0.54442203,-0.12238518,-0.8262678,-0.20922135,0.004428773,0.06658431
415,4.149999999999956,-0.5361898,-0.096042186,-0.83767086,-0.20555615,-0.012675454,0.082619525
416,4.159999999999956,-0.52490866,-0.06726002,-0.8569402,-0.20555615,-0.012675454,0.082619525
417,4.1699999999999555,-0.52057916,-0.05506419,-0.8599892,-0.18952094,-0.022296581,0.09621128
418,4.179999999999955,-0.5049075,-0.047197875,-0.8701117,-0.13332134,-0.007330383,0.09514226
419,4.189999999999955,-0.49948034,-0.05110054,-0.87834394,-0.09789115,0.00030543262,0.0917825
420,4.199999999999955,-0.49948034,-0.05110054,-0.87834394,-0.09789115,0.00030543262,0.0917825
421,4.209999999999955,-0.4982608,-0.077931374,-0.8887104,-0.05971208,-0.0032070426,0.0711658
422,4.2199999999999545,-0.5049075,-0.101408355,-0.89139354,-0.06093381,-0.004428773,0.058948494
423,4.229999999999954,-0.51356655,-0.13458103,-0.8842589,-0.08032878,0.0015271631,0.029474247
424,4.239999999999954,-0.52356714,-0.16098501,-0.8884055,-0.10354166,0.007330383,0.0061086523
425,4.249999999999954,-0.52356714,-0.16098501,-0.8884055,-0.13652839,0.010842858,-0.0015271631
426,4.259999999999954,-0.5605205,-0.112872444,-0.8762097,-0.18555032,0.010537425,-0.0018325958
427,4.269999999999953,-0.56887466,-0.056344748,-0.85504985,-0.205098,-0.00061086525,0.0067195175
428,4.279999999999953,-0.56887466,-0.056344748,-0.85504985,-0.205098,-0.00061086525,0.0067195175
429,4.289999999999953,-0.5486296,-0.015793605,-0.8577939,-0.17455475,0.0009162979,-0.0016798794
430,4.299999999999953,-0.5325311,-0.009329813,-0.8626113,-0.14385876,0.005955936,-0.01985312
431,4.3099999999999525,-0.5325311,-0.009329813,-0.8626113,-0.14385876,0.005955936,-0.01985312
432,4.319999999999952,-0.5202133,-0.045795355,-0.85474503,-0.14370605,-0.0013744468,-0.025961773
433,4.329999999999952,-0.5191766,-0.07646788,-0.84114665,-0.1459968,-0.0027488936,-0.043066
434,4.339999999999952,-0.5191766,-0.07646788,-0.84114665,-0.1142318,0.010842858,-0.06627888
435,4.349999999999952,-0.53314084,-0.12183637,-0.82956064,0.020463986,0.07269296,-0.12797627
436,4.3599999999999515,-0.53314084,-0.12183637,-0.82956064,0.06337727,0.09850202,-0.15836681
437,4.369999999999951,-0.55259323,-0.1185435,-0.8356585,0.10751228,0.10125092,-0.18142697
438,4.379999999999951,-0.5438732,-0.09854234,-0.84407365,0.11255192,0.07070765,-0.15561792
439,4.389999999999951,-0.50655395,-0.046710044,-0.85456204,0.11255192,0.07070765,-0.15561792
440,4.399999999999951,-0.46758825,-0.03524596,-0.8587086,0.101098195,0.034208454,-0.047800206
441,4.40999999999995,-0.4545387,-0.029818814,-0.85133016,0.110872045,0.03924809,-0.03436117
442,4.41999999999995,-0.44673342,-0.037075333,-0.8491959,0.1704314,0.07620544,-0.021838432
443,4.42999999999995,-0.44856274,-0.050246835,-0.8515131,0.18997909,0.08979719,-0.024281893
444,4.43999999999995,-0.47155192,-0.10354263,-0.8613307,0.2218968,0.10216721,-0.048563786
445,4.4499999999999496,-0.49435812,-0.11927526,-0.8613307,0.19883664,0.08368854,-0.06704246
446,4.459999999999949,-0.5510687,-0.12098267,-0.84047586,0.1600467,0.051618114,-0.07574729
447,4.469999999999949,-0.5510687,-0.12098267,-0.84047586,0.10399981,-0.0036651916,-0.07696902
448,4.479999999999949,-0.56478906,-0.11134796,-0.83974415,0.0870483,-0.029321533,-0.07452556
449,4.489999999999949,-0.59338826,-0.07835823,-0.8263287,0.06688975,-0.12461651,-0.053450707
450,4.4999999999999485,-0.6062549,-0.05646671,-0.8227919,0.081855945,-0.1928807,-0.01282817
451,4.509999999999948,-0.5896686,-0.041099958,-0.7838262,0.10293079,-0.26099217,0.039095376
452,4.519999999999948,-0.5896686,-0.041099958,-0.7838262,0.21624629,-0.44806966,0.16768251
453,4.529999999999948,-0.56619155,-0.08524887,-0.7660203,0.26908615,-0.48670688,0.20005837
454,4.539999999999948,-0.5752165,-0.11122601,-0.7765697,0.30909783,-0.46196684,0.22220223
455,4.549999999999947,-0.5752165,-0.11122601,-0.7765697,0.3210097,-0.4118759,0.22693644
456,4.559999999999947,-0.6008277,-0.1308613,-0.78236276,0.3210097,-0.4118759,0.22693644
457,4.569999999999947,-0.6680878,-0.17135146,-0.807852,0.3210097,-0.4118759,0.22693644
458,4.579999999999947,-0.6680878,-0.17135146,-0.807852,0.3210097,-0.4118759,0.22693644
459,4.589999999999947,-0.6082672,-0.1247024,-0.8215113,0.441961,-0.40744713,0.26435193
460,4.599999999999946,-0.55814236,-0.10689648,-0.82706046,0.49861875,-0.42287147,0.25137106
461,4.609999999999946,-0.5179571,-0.098420374,-0.8560255,0.50411654,-0.3313944,0.22174409
462,4.619999999999946,-0.48984566,-0.10957957,-0.88139284,0.40882155,-0.15760323,0.18005253
463,4.629999999999946,-0.4864918,-0.1299466,-0.86456263,0.29764408,-0.02031127,0.13713925
464,4.6399999999999455,-0.5119811,-0.15244792,-0.8328535,0.1881465,0.10216721,0.07849618
465,4.649999999999945,-0.564972,-0.16818054,-0.7863874,0.1881465,0.10216721,0.07849618
466,4.659999999999945,-0.58753425,-0.17751035,-0.7709596,0.15653422,0.08353582,0.046578474
467,4.669999999999945,-0.5835096,-0.18141302,-0.77815515,0.17394388,0.04337143,0.04917465
468,4.679999999999945,-0.5380192,-0.18427904,-0.8444395,0.15760323,-0.031154128,0.031154128
469,4.689999999999944,-0.5102737,-0.17549805,-0.89395463,0.071776666,0.0061086523,-0.0062613687
470,4.699999999999944,-0.52314025,-0.14421573,-0.8432809,-0.14294247,0.11560625,-0.101098195
471,4.709999999999944,-0.52314025,-0.14421573,-0.8432809,-0.14294247,0.11560625,-0.101098195
472,4.719999999999944,-0.532775,-0.13201989,-0.81431586,-0.17455475,0.10323623,-0.11346822
473,4.729999999999944,-0.52423793,-0.10024975,-0.80535185,-0.12690726,-0.056352317,-0.09789115
474,4.739999999999943,-0.5159447,-0.097322755,-0.81212056,-0.10476339,-0.07452556,-0.082924955
475,4.749999999999943,-0.50472456,-0.11909231,-0.799071,-0.11010846,-0.034208454,-0.06963864
476,4.759999999999943,-0.5086882,-0.13665432,-0.77992356,-0.12018774,-0.0025961774,-0.06505715
477,4.769999999999943,-0.53222615,-0.16446081,-0.7515073,-0.15607607,0.03145956,-0.050701816
478,4.7799999999999425,-0.5429585,-0.16452178,-0.7496779,-0.16462818,0.014202617,-0.03481932
479,4.789999999999942,-0.57881427,-0.1501917,-0.7784601,-0.13973543,-0.06612616,0.0012217305
480,4.799999999999942,-0.579668,-0.12061679,-0.8134621,-0.105068825,-0.1255328,0.033444874
481,4.809999999999942,-0.5697893,-0.10646963,-0.8301094,-0.08811731,-0.12797627,0.048258353
482,4.819999999999942,-0.53990954,-0.10342067,-0.84590304,-0.079870634,-0.08384126,0.06765333
483,4.8299999999999415,-0.53649473,-0.12140953,-0.8349268,-0.0888809,-0.038789943,0.06505715
484,4.839999999999941,-0.5377143,-0.14269125,-0.799132,-0.08659015,-0.018020526,0.074830994
485,4.849999999999941,-0.5377143,-0.14269125,-0.799132,-0.08659015,-0.018020526,0.074830994
486,4.859999999999941,-0.5821681,-0.15317966,-0.78138703,-0.04016439,-0.026267206,0.0983493
487,4.869999999999941,-0.5821681,-0.15317966,-0.78138703,-0.01450805,-0.030848695,0.11560625
488,4.87999999999994,-0.5892417,-0.15817997,-0.80333954,0.010079277,-0.03313944,0.1133155
489,4.88999999999994,-0.59979105,-0.15848486,-0.8746242,0.035888333,-0.04153884,0.1085813
490,4.89999999999994,-0.59979105,-0.15848486,-0.8746242,0.033292156,-0.022143865,0.1049161
491,4.90999999999994,-0.57430184,-0.12854409,-0.85767204,-0.0038179078,0.031306844,0.09590584
492,4.9199999999999395,-0.57430184,-0.12854409,-0.85767204,-0.0786489,0.07727446,0.054825157
493,4.929999999999939,-0.59631526,-0.124580435,-0.80187607,-0.099265605,0.0842994,0.022907447
494,4.939999999999939,-0.60491335,-0.115250625,-0.77333784,-0.099265605,0.0842994,0.022907447
495,4.949999999999939,-0.60491335,-0.115250625,-0.77333784,-0.099265605,0.0842994,0.022907447
496,4.959999999999939,-0.5821071,-0.09854234,-0.77333784,-0.047647487,0.05299256,0.03680463
497,4.9699999999999385,-0.5763141,-0.066894144,-0.7873021,0.011148291,0.024129177,0.050701816
498,4.979999999999938,-0.5397876,-0.050124876,-0.7944366,0.050549097,0.0022907446,0.0571159
499,4.989999999999938,-0.5050295,-0.04847844,-0.81212056,0.072540246,0.0036651916,0.064599
500,4.999999999999938,-0.47551554,-0.057625312,-0.82974356,0.07620544,0.010995574,0.064599
501,5.009999999999938,-0.4689298,-0.07860215,-0.8450493,0.06505715,0.034208454,0.05955936
502,5.019999999999937,-0.4809427,-0.10451829,-0.8467567,0.03191771,0.05467244,0.03359759
503,5.029999999999937,-0.5367996,-0.1501917,-0.83998805,0.0025961774,0.06795876,0.0125227375
504,5.039999999999937,-0.570704,-0.17427845,-0.84437853,0.0025961774,0.06795876,0.0125227375
505,5.049999999999937,-0.570704,-0.17427845,-0.84437853,0.0025961774,0.06795876,0.0125227375
506,5.0599999999999365,-0.5900954,-0.1627534,-0.8622454,0.0025961774,0.06795876,0.0125227375
507,5.069999999999936,-0.5839365,-0.14561825,-0.85413516,-0.08659015,0.042913284,0.0035124752
508,5.079999999999936,-0.5402144,-0.09311519,-0.8241334,-0.09758572,0.024587326,0.01817324
509,5.089999999999936,-0.5306407,-0.08909056,-0.8074861,-0.066737026,0.010079277,0.0050396384
510,5.099999999999936,-0.52612823,-0.08860273,-0.82059664,0.0050396384,0.056963183,0.012675454
511,5.1099999999999355,-0.5286284,-0.110189356,-0.85206187,-0.008399397,0.06658431,0.011301007
512,5.119999999999935,-0.559118,-0.15470415,-0.848891,-0.043982297,0.06154467,0.017256944
513,5.129999999999935,-0.5730822,-0.14933798,-0.8193771,-0.043982297,0.06154467,0.017256944
514,5.139999999999935,-0.5730822,-0.14933798,-0.8193771,-0.064751714,0.04917465,0.010995574
515,5.149999999999935,-0.5762531,-0.13031249,-0.8045591,-0.055741455,0.01740966,-0.0010690142
516,5.159999999999934,-0.57247245,-0.11372615,-0.7998028,-0.022296581,-0.031154128,-0.016493361
517,5.169999999999934,-0.5710089,-0.11177482,-0.80327857,0.05757405,-0.05390886,-0.02565634
518,5.179999999999934,-0.54893446,-0.10579886,-0.8216333,0.08307768,-0.04520403,-0.008399397
519,5.189999999999934,-0.5422877,-0.09988388,-0.8074861,0.08307768,-0.04520403,-0.008399397
520,5.199999999999934,-0.5413121,-0.10866488,-0.8024858,0.1244638,-0.022907447,0.028405234
521,5.209999999999933,-0.54216576,-0.11842154,-0.80577874,0.14645495,-0.02031127,0.038331795
522,5.219999999999933,-0.54801977,-0.15409435,-0.8346828,0.15851954,-0.01282817,0.04932737
523,5.229999999999933,-0.5468002,-0.1624485,-0.85596454,0.13026701,-0.011759156,0.051618114
524,5.239999999999933,-0.53015286,-0.15653352,-0.8646846,0.06078109,-0.037873644,0.04886922
525,5.2499999999999325,-0.5322872,-0.14580119,-0.85456204,0.011911872,-0.060170226,0.043676864
526,5.259999999999932,-0.5377753,-0.13702019,-0.8469397,-0.003970624,-0.06765333,0.03634648
527,5.269999999999932,-0.54466593,-0.11226265,-0.85755,-0.011301007,-0.050549097,0.014202617
528,5.279999999999932,-0.55192244,-0.09963996,-0.86608714,-0.014966198,-0.03359759,-0.0030543262
529,5.289999999999932,-0.56509393,-0.10116444,-0.86425775,-0.01863139,-0.018936822,-0.026419923
530,5.299999999999931,-0.5827779,-0.10951859,-0.85017157,-0.01985312,-0.015271631,-0.034972034
531,5.309999999999931,-0.5901564,-0.11732392,-0.8365122,-0.01985312,-0.015271631,-0.03863723
532,5.319999999999931,-0.5904003,-0.12793429,-0.80370545,-0.013591751,-0.020158553,-0.045814894
533,5.329999999999931,-0.58729035,-0.117140986,-0.78138703,-0.008552114,-0.03481932,-0.044593163
534,5.339999999999931,-0.5739359,-0.117140986,-0.79833925,-0.008552114,-0.03481932,-0.044593163
535,5.34999999999993,-0.5739359,-0.117140986,-0.79833925,-0.0012217305,-0.03481932,-0.054367006
536,5.35999999999993,-0.56021565,-0.105372004,-0.81736475,0.016035212,-0.041996986,-0.060322944
537,5.36999999999993,-0.5580813,-0.112750486,-0.82748735,0.036957346,-0.051618114,-0.06261369
538,5.37999999999993,-0.5652159,-0.123055965,-0.83962214,0.038026363,-0.03573562,-0.06261369
539,5.3899999999999295,-0.57844836,-0.13281263,-0.8259628,0.029474247,-0.018784106,-0.06887506
540,5.399999999999929,-0.5927785,-0.13482493,-0.8090106,0.030543262,-0.0065668016,-0.07498371
541,5.409999999999929,-0.60290104,-0.12256813,-0.7741915,0.037873644,-0.0015271631,-0.07620544
542,5.419999999999929,-0.60070574,-0.11518965,-0.758154,0.069791354,-0.016035212,-0.07345655
543,5.429999999999929,-0.5910101,-0.10585984,-0.7557758,0.10170906,-0.018325957,-0.06352998
544,5.4399999999999284,-0.57680196,-0.09415183,-0.77285,0.12217305,0.012370021,-0.043982297
545,5.449999999999928,-0.56942344,-0.09360302,-0.77906984,0.13164146,0.027183503,-0.019547688
546,5.459999999999928,-0.5599107,-0.107750185,-0.79394877,0.15118915,0.013897184,0.005192355
547,5.469999999999928,-0.56070346,-0.11073817,-0.8094985,0.17455475,-0.009162978,0.020158553
548,5.479999999999928,-0.5560691,-0.12390967,-0.82828003,0.19914207,-0.024892759,0.027641652
549,5.489999999999927,-0.5560691,-0.12390967,-0.82828003,0.2125811,-0.016187929,0.027641652
550,5.499999999999927,-0.55984974,-0.13567865,-0.83206075,0.19486602,0.054519724,0.032223143
551,5.509999999999927,-0.573753,-0.1709246,-0.84254915,0.15286903,0.08597928,0.035430185
552,5.519999999999927,-0.5979617,-0.18562058,-0.8454762,0.15286903,0.08597928,0.035430185
553,5.5299999999999265,-0.5979617,-0.18562058,-0.8454762,0.08689558,0.06841691,0.03023783
554,5.539999999999926,-0.5683259,-0.10921369,-0.7818139,0.10552697,0.051465396,0.020616703
555,5.549999999999926,-0.57302123,-0.10153031,-0.8024249,0.12370021,0.085673854,0.01572978
556,5.559999999999926,-0.53838503,-0.08866371,-0.81151074,0.12461651,0.12110403,0.016798794
557,5.569999999999926,-0.5003341,-0.06994311,-0.8274264,0.119729586,0.13576481,-0.00290161
558,5.5799999999999255,-0.5078345,-0.093481064,-0.84181744,0.09407325,0.13194689,-0.00061086525
559,5.589999999999925,-0.5078345,-0.093481064,-0.84181744,0.07315111,0.13057245,-0.004428773
560,5.599999999999925,-0.49277264,-0.13567865,-0.81632805,0.048563786,0.1414153,-0.0070249503
561,5.609999999999925,-0.51015174,-0.15336262,-0.8216333,0.026419923,0.15958855,-0.012064588
562,5.619999999999925,-0.5389339,-0.18873052,-0.8473056,-0.03268129,0.21288654,-0.032223143
563,5.629999999999924,-0.5631426,-0.19763349,-0.85523283,-0.10980303,0.25137106,-0.07941248
564,5.639999999999924,-0.57320416,-0.1806203,-0.8365122,-0.10980303,0.25137106,-0.07941248
565,5.649999999999924,-0.63643956,-0.18183987,-0.796205,-0.1684461,0.14340061,-0.1600467
566,5.659999999999924,-0.6229022,-0.1642169,-0.7968148,-0.16875152,0.15195273,-0.14049901
567,5.6699999999999235,-0.5599107,-0.1267147,-0.781509,-0.16126843,0.1337795,-0.13927728
568,5.679999999999923,-0.5599107,-0.1267147,-0.781509,-0.16126843,0.1337795,-0.13927728
569,5.689999999999923,-0.55259323,-0.13738607,-0.77839905,-0.1414153,0.10216721,-0.1328632
570,5.699999999999923,-0.518201,-0.15525296,-0.79583913,-0.14248432,0.03634648,-0.07742717
571,5.709999999999923,-0.5039318,-0.187328,-0.7870581,-0.14950927,-0.008857546,-0.063988134
572,5.7199999999999225,-0.5039318,-0.187328,-0.7870581,-0.14950927,-0.008857546,-0.063988134
573,5.729999999999922,-0.47386914,-0.18025441,-0.7794967,-0.15347989,0.018020526,-0.04932737
574,5.739999999999922,-0.44276974,-0.12409261,-0.80230296,-0.1910481,0.08246681,-0.011911872
575,5.749999999999922,-0.44276974,-0.12409261,-0.80230296,-0.20708331,0.1020145,-0.0035124752
576,5.759999999999922,-0.47411305,-0.11811664,-0.8368171,-0.22831088,0.13973543,0.025503624
577,5.769999999999921,-0.48789433,-0.1372641,-0.863526,-0.23472497,0.14340061,0.047494773
578,5.779999999999921,-0.5245428,-0.14878917,-0.898833,-0.25686884,0.13713925,0.0729984
579,5.789999999999921,-0.55277616,-0.14708175,-0.901577,-0.26893342,0.12370021,0.07788532
580,5.799999999999921,-0.55277616,-0.14708175,-0.901577,-0.26893342,0.12370021,0.07788532
581,5.809999999999921,-0.57472867,-0.098725274,-0.83169484,-0.23182335,0.069027774,0.07467828
582,5.81999999999992,-0.5699113,-0.081956,-0.78559464,-0.16646078,0.010842858,0.07284568
583,5.82999999999992,-0.5626548,-0.08872469,-0.77467936,-0.09636399,-0.025350908,0.0795652
584,5.83999999999992,-0.54820275,-0.11012838,-0.79425365,-0.032528576,-0.04444045,0.08506299
585,5.84999999999992,-0.55009305,-0.128788,-0.8369391,-0.032528576,-0.04444045,0.08506299
586,5.8599999999999195,-0.5471051,-0.1425693,-0.8859663,-0.004886922,0.0154243475,0.08735373
587,5.869999999999919,-0.544544,-0.1542773,-0.89017385,-0.038026363,0.03726278,0.06994407
588,5.879999999999919,-0.556313,-0.14945993,-0.88645416,-0.05879578,0.031001411,0.071013086
589,5.889999999999919,-0.50191957,-0.13397123,-0.87681943,-0.047494773,0.0065668016,0.061391957
590,5.899999999999919,-0.4978949,-0.12720254,-0.8929789,-0.035277467,0.01282817,0.05421429
591,5.909999999999918,-0.49984625,-0.13452004,-0.88852745,-0.03680463,0.063988134,0.046578474
592,5.919999999999918,-0.49984625,-0.13452004,-0.88852745,-0.02031127,0.17516561,0.020616703
593,5.929999999999918,-0.5608254,-0.18251066,-0.85541576,0.016035212,0.22052236,0.010842858
594,5.939999999999918,-0.5608254,-0.18251066,-0.85541576,0.016035212,0.22052236,0.010842858
595,5.949999999999918,-0.52917725,-0.24166043,-0.816816,-0.0065668016,0.15928312,-0.00992656
596,5.959999999999917,-0.5321652,-0.23726994,-0.8120596,-0.013744468,0.14095716,-0.016035212
597,5.969999999999917,-0.52734786,-0.21629311,-0.81760865,-0.013744468,0.14095716,-0.016035212
598,5.979999999999917,-0.5250307,-0.18074225,-0.82486516,-0.078343466,0.21380283,0.02855795
599,5.989999999999917,-0.5250307,-0.18074225,-0.82486516,-0.078343466,0.21380283,0.02855795
600,5.9999999999999165,-0.5170424,-0.11201873,-0.8392563,-0.115453534,0.2454151,0.05390886
601,6.009999999999916,-0.5170424,-0.11201873,-0.8392563,-0.115453534,0.2454151,0.05390886
602,6.019999999999916,-0.5027732,-0.07195542,-0.82840204,-0.115453534,0.2454151,0.05390886
603,6.029999999999916,-0.46325874,-0.064394,-0.8344389,-0.1554652,0.0071776668,0.07544186
604,6.039999999999916,-0.46325874,-0.064394,-0.8344389,-0.15622878,-0.056352317,0.08307768
605,6.0499999999999154,-0.52064013,-0.07890704,-0.840171,-0.16798794,-0.119729586,0.10399981
606,6.059999999999915,-0.5290553,-0.07939488,-0.82956064,-0.17027868,-0.172264,0.12140947
607,6.069999999999915,-0.5390558,-0.06329638,-0.8088887,-0.15760323,-0.24419338,0.15592335
608,6.079999999999915,-0.5363118,-0.03750219,-0.8101692,-0.13454308,-0.23793201,0.1695151
609,6.089999999999915,-0.5318603,-0.018476687,-0.8244993,-0.11026118,-0.2060143,0.1695151
610,6.099999999999914,-0.5277747,-0.004451479,-0.85187894,-0.08246681,-0.1459968,0.15363261
611,6.109999999999914,-0.55015403,0.033843435,-0.8818197,-0.065515295,-0.11178834,0.14874569
612,6.119999999999914,-0.56094736,0.038172957,-0.87858784,-0.02275473,-0.08460484,0.14401148
613,6.129999999999914,-0.5744847,0.020062147,-0.8740754,0.059101213,-0.052381694,0.12965615
614,6.1399999999999135,-0.5744847,0.020062147,-0.8740754,0.059101213,-0.052381694,0.12965615
615,6.149999999999913,-0.5781435,-0.016525354,-0.87858784,0.14492778,-0.051923547,0.115453534
616,6.159999999999913,-0.5774118,-0.038477857,-0.8875518,0.18066339,-0.06994407,0.109650314
617,6.169999999999913,-0.5557031,-0.07829725,-0.8902349,0.20708331,-0.14309518,0.08200866
618,6.179999999999913,-0.5464343,-0.09043211,-0.8846248,0.18173242,-0.16890424,0.05009095
619,6.1899999999999125,-0.5464953,-0.079211935,-0.8843199,0.15012014,-0.17898351,0.021838432
620,6.199999999999912,-0.54606843,-0.06360127,-0.88889337,0.12583824,-0.18646662,-0.005192355
621,6.209999999999912,-0.54125106,-0.045612417,-0.8977963,0.0954477,-0.18799378,-0.037110064
622,6.219999999999912,-0.54125106,-0.028111396,-0.9087725,0.067500606,-0.1966986,-0.06918049
623,6.229999999999912,-0.54960525,-0.026647896,-0.8991378,0.05299256,-0.2041817,-0.09117164
624,6.239999999999911,-0.564911,-0.032501895,-0.87870985,0.051923547,-0.2078469,-0.10094548
625,6.249999999999911,-0.5791801,-0.041343875,-0.8587696,0.06291912,-0.2125811,-0.10338894
626,6.259999999999911,-0.59790075,-0.04524654,-0.8370001,0.10247265,-0.25870144,-0.09315695
627,6.269999999999911,-0.6024132,-0.03597771,-0.8249872,0.13316862,-0.29153544,-0.07437284
628,6.2799999999999105,-0.59588844,-0.041221917,-0.79510736,0.20341812,-0.34468073,-0.0627664
629,6.28999999999991,-0.6061939,-0.068479605,-0.7695571,0.3324634,-0.40500367,-0.0580322
630,6.29999999999991,-0.6061939,-0.068479605,-0.7695571,0.41584653,-0.42760566,-0.04886922
631,6.30999999999991,-0.61723113,-0.08659042,-0.77724046,0.41584653,-0.42760566,-0.04886922
632,6.31999999999991,-0.5864367,-0.10848194,-0.8214504,0.41584653,-0.42760566,-0.04886922
633,6.3299999999999095,-0.52582335,-0.11598238,-0.8334633,0.3098614,-0.31963524,-0.07070765
634,6.339999999999909,-0.5085053,-0.12421457,-0.854623,0.3098614,-0.31963524,-0.07070765
635,6.349999999999909,-0.4996633,-0.10037171,-0.88066113,0.16722436,-0.21930063,-0.11484267
636,6.359999999999909,-0.49496788,-0.08762706,-0.8700507,0.14355333,-0.16584991,-0.12507465
637,6.369999999999909,-0.48545516,-0.10451829,-0.8355975,0.14355333,-0.16584991,-0.12507465
638,6.379999999999908,-0.48935783,-0.155131,-0.80577874,0.069485925,-0.022296581,-0.20311269
639,6.389999999999908,-0.48935783,-0.155131,-0.80577874,0.069485925,-0.022296581,-0.20311269
640,6.399999999999908,-0.5333848,-0.20982932,-0.7529098,-0.0032070426,0.032070424,-0.21487185
641,6.409999999999908,-0.5664965,-0.21928109,-0.75071454,-0.020463986,0.034513887,-0.21013765
642,6.419999999999908,-0.62156063,-0.22690348,-0.74778754,-0.062155537,0.036651913,-0.19318613
643,6.429999999999907,-0.64028126,-0.2215983,-0.7309573,-0.062155537,0.036651913,-0.19318613
644,6.439999999999907,-0.6459523,-0.19379179,-0.71479785,-0.09666943,0.051159963,-0.16783522
645,6.449999999999907,-0.6459523,-0.19379179,-0.71479785,-0.07788532,-0.037873644,-0.13179417
646,6.459999999999907,-0.60381573,-0.107201375,-0.6920526,-0.04810564,-0.1133155,-0.10934488
647,6.4699999999999065,-0.57338715,-0.10464026,-0.7161393,0.018020526,-0.14569137,-0.058643065
648,6.479999999999906,-0.5345434,-0.12104365,-0.7399212,0.04046982,-0.06612616,-0.00992656
649,6.489999999999906,-0.5345434,-0.12104365,-0.7399212,0.04046982,-0.06612616,-0.00992656
650,6.499999999999906,-0.5345434,-0.12104365,-0.7399212,-0.061391957,0.07238753,0.039095376
651,6.509999999999906,-0.62589014,-0.19013305,-0.67662483,-0.073303826,0.01740966,0.056352317
652,6.519999999999905,-0.6224753,-0.1478135,-0.70241904,-0.034972034,-0.03848451,0.07391469
653,6.529999999999905,-0.6168653,-0.10116444,-0.7585198,-0.034972034,-0.03848451,0.07391469
654,6.539999999999905,-0.57527745,-0.0831146,-0.8338291,0.049785517,-0.11346822,0.13347405
655,6.549999999999905,-0.5519834,-0.10061563,-0.8641358,0.049785517,-0.11346822,0.13347405
656,6.559999999999905,-0.53033584,-0.16476572,-0.84358585,-0.019547688,-0.017562376,0.13881913
657,6.569999999999904,-0.53869,-0.2008044,-0.81547445,-0.05299256,0.04337143,0.12492194
658,6.579999999999904,-0.5615572,-0.22653762,-0.7544952,-0.10354166,0.10399981,0.08277224
659,6.589999999999904,-0.5615572,-0.22653762,-0.7544952,-0.09789115,0.03680463,0.05971208
660,6.599999999999904,-0.5868635,-0.184401,-0.78157,-0.0888809,-0.020463986,0.06246097
661,6.6099999999999035,-0.5868635,-0.14854525,-0.8551108,-0.057726767,-0.115453534,0.082619525
662,6.619999999999903,-0.57106996,-0.13397123,-0.8834052,-0.058184914,-0.086132,0.11804971
663,6.629999999999903,-0.57106996,-0.13397123,-0.8834052,-0.07086037,-0.025198191,0.12507465
664,6.639999999999903,-0.52917725,-0.1422644,-0.82681656,-0.09239337,0.06383542,0.12705997
665,6.649999999999903,-0.54100716,-0.14958191,-0.807852,-0.1085813,0.101556346,0.12186762
666,6.659999999999902,-0.57857037,-0.15616766,-0.7988881,-0.12935072,0.087964594,0.12293663
667,6.669999999999902,-0.57857037,-0.15616766,-0.7988881,-0.13164146,0.0720821,0.13041973
668,6.679999999999902,-0.5935712,-0.10957957,-0.83956116,-0.13133603,0.029321533,0.13179417
669,6.689999999999902,-0.5886929,-0.0895784,-0.8514522,-0.12858713,0.0038179078,0.1160644
670,6.699999999999902,-0.582534,-0.07585809,-0.84279305,-0.11866058,-0.0096211275,0.09407325
671,6.709999999999901,-0.60948676,-0.059942525,-0.8369391,-0.10644327,0.0062613687,0.07819075
672,6.719999999999901,-0.5536299,-0.0629305,-0.81779164,-0.09239337,0.08445212,0.082924955
673,6.729999999999901,-0.58241206,-0.08256579,-0.80419326,-0.048258353,0.094531395,0.08307768
674,6.739999999999901,-0.5860098,-0.1094576,-0.81364506,-0.02397646,0.099571034,0.093004234
675,6.7499999999999005,-0.5860098,-0.1094576,-0.81364506,-0.02397646,0.099571034,0.093004234
676,6.7599999999999,-0.58515614,-0.13342242,-0.83870745,-0.02733622,0.07880162,0.0917825
677,6.7699999999999,-0.5828389,-0.14665489,-0.8706606,-0.10430524,0.06734789,0.064446285
678,6.7799999999999,-0.5939981,-0.11933623,-0.84139055,-0.15332718,0.079107046,0.04337143
679,6.7899999999999,-0.5966202,-0.10518907,-0.8328535,-0.16294831,0.071776666,0.026267206
680,6.7999999999998995,-0.57911915,-0.08610259,-0.8357805,-0.16142114,0.05589417,0.0018325958
681,6.809999999999899,-0.5698503,-0.07482144,-0.8416954,-0.16737708,0.04841107,-0.020158553
682,6.819999999999899,-0.5606425,-0.061162103,-0.8441956,-0.16737708,0.04841107,-0.020158553
683,6.829999999999899,-0.5374094,-0.03811198,-0.8432809,-0.14477506,0.009468411,-0.05787948
684,6.839999999999899,-0.53009194,-0.037563168,-0.84273213,-0.13255776,0.013133603,-0.06994407
685,6.849999999999898,-0.5453367,-0.054149497,-0.8207796,-0.12904528,0.025503624,-0.065209866
686,6.859999999999898,-0.5479588,-0.07646788,-0.787363,-0.11530081,0.0010690142,-0.06246097
687,6.869999999999898,-0.56076443,-0.08232188,-0.77083766,-0.09560041,-0.008552114,-0.059864793
688,6.879999999999898,-0.5695454,-0.085309856,-0.7723621,-0.055283304,-0.0070249503,-0.057268616
689,6.8899999999998975,-0.573692,-0.08933448,-0.7943146,-0.055283304,-0.0070249503,-0.057268616
690,6.899999999999897,-0.5762531,-0.09433477,-0.825475,0.01695151,-0.022449298,-0.017562376
691,6.909999999999897,-0.6113771,-0.10732334,-0.86462367,0.01695151,-0.022449298,-0.017562376
692,6.919999999999897,-0.58515614,-0.10714039,-0.85413516,-0.003970624,-0.05299256,0.02031127
693,6.929999999999897,-0.58515614,-0.10714039,-0.85413516,-0.003970624,-0.05299256,0.02031127
694,6.9399999999998965,-0.5529591,-0.09994486,-0.81102294,-0.004886922,-0.07620544,-0.005192355
695,6.949999999999896,-0.570826,-0.075675145,-0.79736364,0.025503624,-0.030848695,-0.025961773
696,6.959999999999896,-0.570826,-0.075675145,-0.79736364,0.025503624,-0.030848695,-0.025961773
697,6.969999999999896,-0.570826,-0.075675145,-0.79736364,0.093767814,0.0025961774,-0.010995574
698,6.979999999999896,-0.570826,-0.075675145,-0.79736364,0.093767814,0.0025961774,-0.010995574
699,6.989999999999895,-0.61308455,-0.13598356,-0.8243164,0.13316862,-0.011911872,-0.016798794
700,6.999999999999895,-0.6052792,-0.14031307,-0.82370657,0.13072516,0.00030543262,-0.026725354
701,7.009999999999895,-0.59655917,-0.13147108,-0.8188282,0.11224649,0.00870483,-0.039095376
702,7.019999999999895,-0.59655917,-0.13147108,-0.8188282,0.11224649,0.00870483,-0.039095376
703,7.0299999999998946,-0.5712528,-0.078114316,-0.7977904,0.09392053,0.004886922,-0.04046982
704,7.039999999999894,-0.5655208,-0.0687845,-0.7901071,0.07437284,-0.007330383,-0.029474247
705,7.049999999999894,-0.5631426,-0.07122366,-0.7866313,0.09010262,0.02076942,-0.025809057
706,7.059999999999894,-0.57320416,-0.09226148,-0.7918145,0.10827587,0.05024367,-0.019700404
707,7.069999999999894,-0.5760702,-0.10153031,-0.79224133,0.11178834,0.05879578,-0.017256944
708,7.0799999999998935,-0.5939371,-0.12793429,-0.7935219,0.10797043,0.06001751,0.0071776668
709,7.089999999999893,-0.60070574,-0.12750745,-0.7969977,0.10567969,0.029474247,0.02076942
710,7.099999999999893,-0.6017424,-0.11628727,-0.8010833,0.14278975,-0.010537425,0.023518313
711,7.109999999999893,-0.5704601,-0.08646846,-0.8249872,0.14492778,0.021227567,0.016035212
712,7.119999999999893,-0.5704601,-0.08646846,-0.8249872,0.14492778,0.021227567,0.016035212
713,7.129999999999892,-0.5671672,-0.08250481,-0.81724274,0.12873985,0.076052725,0.0047342055
714,7.139999999999892,-0.5793021,-0.09524946,-0.8123035,0.11866058,0.10522154,-0.0027488936
715,7.149999999999892,-0.6005229,-0.11915329,-0.769801,0.103847094,0.12583824,-0.012675454
716,7.159999999999892,-0.58942467,-0.10640865,-0.7674228,0.10399981,0.10995574,-0.0053450707
717,7.169999999999892,-0.57180166,-0.0834195,-0.7880338,0.11530081,0.05757405,0.005955936
718,7.179999999999891,-0.54332435,-0.061467,-0.8221212,0.13637567,0.02107485,0.016035212
719,7.189999999999891,-0.5147861,-0.058905877,-0.85498893,0.14248432,0.02855795,0.012370021
720,7.199999999999891,-0.49399224,-0.088114895,-0.8709654,0.1337795,0.06261369,-0.0061086523
721,7.209999999999891,-0.4909433,-0.10024975,-0.87029463,0.11530081,0.08078693,-0.014966198
722,7.2199999999998905,-0.48941877,-0.13287361,-0.8591965,0.054061573,0.0852157,-0.032375857
723,7.22999999999989,-0.4788084,-0.13567865,-0.8473665,0.021227567,0.066737026,-0.04841107
724,7.23999999999989,-0.52942115,-0.14720371,-0.8467567,-0.028710667,0.043218717,-0.05971208
725,7.24999999999989,-0.5511907,-0.16446081,-0.8535864,-0.10598512,0.058490347,-0.06887506
726,7.25999999999989,-0.5576545,-0.1683025,-0.8399271,-0.17715092,0.09468412,-0.09025534
727,7.269999999999889,-0.5721066,-0.15903367,-0.8090106,-0.26313022,0.17455475,-0.14859296
728,7.279999999999889,-0.59674215,-0.14305714,-0.7968148,-0.26313022,0.17455475,-0.14859296
729,7.289999999999889,-0.5889978,-0.09470064,-0.7695571,-0.2742785,0.1928807,-0.14996742
730,7.299999999999889,-0.5889978,-0.09470064,-0.7695571,-0.28038713,0.18799378,-0.14263703
731,7.309999999999889,-0.5916199,-0.09854234,-0.7456533,-0.21135938,0.106595986,-0.123547494
732,7.319999999999888,-0.5787533,-0.12573905,-0.7485803,-0.13515393,0.063224554,-0.09712757
733,7.329999999999888,-0.5787533,-0.12573905,-0.7485803,-0.13515393,0.063224554,-0.09712757
734,7.339999999999888,-0.57887524,-0.18391317,-0.8024249,-0.09590584,0.04886922,-0.083383106
735,7.349999999999888,-0.58655864,-0.18110813,-0.8191332,-0.051618114,-0.022907447,-0.03268129
736,7.3599999999998875,-0.58655864,-0.18110813,-0.8191332,-0.051618114,-0.022907447,-0.03268129
737,7.369999999999887,-0.5309456,-0.096469045,-0.819621,-0.03894266,-0.09468412,-0.0041233404
738,7.379999999999887,-0.5309456,-0.096469045,-0.819621,-0.03894266,-0.09468412,-0.0041233404
739,7.389999999999887,-0.4753326,-0.08043153,-0.78608245,0.024740042,-0.10048734,0.002443461
740,7.399999999999887,-0.46203914,-0.08524887,-0.7971197,0.024740042,-0.10048734,0.002443461
741,7.4099999999998865,-0.4786255,-0.07945585,-0.7963879,-0.039553523,0.1067487,0.03176499
742,7.419999999999886,-0.51789606,-0.08354146,-0.7704108,-0.049632803,0.14080444,0.051159963
743,7.429999999999886,-0.5578374,-0.097871564,-0.7618737,-0.004276057,0.10705414,0.0711658
744,7.439999999999886,-0.58411944,-0.11622629,-0.80285174,0.091477074,0.061239243,0.098807454
745,7.449999999999886,-0.58411944,-0.11622629,-0.80285174,0.091477074,0.061239243,0.098807454
746,7.459999999999885,-0.58661956,-0.12610492,-0.84273213,0.12339478,0.037110064,0.117438845
747,7.469999999999885,-0.5699113,-0.13592257,-0.89895487,0.08903361,0.047800206,0.1244638
748,7.479999999999885,-0.57296026,-0.10610375,-0.85401326,0.1469131,-0.009162978,0.14966199
749,7.489999999999885,-0.56210595,-0.08738314,-0.82980454,0.1469131,-0.009162978,0.14966199
750,7.4999999999998845,-0.5388729,-0.095615335,-0.8562694,0.27366763,-0.06566802,0.12492194
751,7.509999999999884,-0.5388729,-0.095615335,-0.8562694,0.27366763,-0.06566802,0.12492194
752,7.519999999999884,-0.5257014,-0.13092227,-0.93950605,0.20387627,-0.05390886,0.09758572
753,7.529999999999884,-0.5131397,-0.13275166,-0.9232856,0.07498371,0.02443461,0.051159963
754,7.539999999999884,-0.5131397,-0.13275166,-0.9232856,0.07498371,0.02443461,0.051159963
755,7.5499999999998835,-0.5361288,-0.100432694,-0.83907336,-0.057421334,0.08582657,-0.017256944
756,7.559999999999883,-0.5382631,-0.076528855,-0.8330974,-0.06337727,0.0759,-0.030695979
757,7.569999999999883,-0.5348483,-0.064394,-0.83956116,-0.0571159,0.052839845,-0.036651913
758,7.579999999999883,-0.5322872,-0.07658983,-0.8457201,-0.059406646,0.029626964,-0.036651913
759,7.589999999999883,-0.53466535,-0.09653002,-0.84010994,-0.06918049,0.024587326,-0.037873644
760,7.599999999999882,-0.5372875,-0.1247024,-0.80712026,-0.089949906,0.039095376,-0.06001751
761,7.609999999999882,-0.53936076,-0.13293459,-0.7851068,-0.105832405,0.054825157,-0.0786489
762,7.619999999999882,-0.5435683,-0.12750745,-0.76041025,-0.12156218,0.04734206,-0.09330966
763,7.629999999999882,-0.5479588,-0.11195775,-0.76498365,-0.12522738,0.03268129,-0.094531395
764,7.6399999999998816,-0.5479588,-0.11195775,-0.76498365,-0.12522738,0.03268129,-0.094531395
765,7.649999999999881,-0.5499711,-0.12494631,-0.85498893,-0.16600263,0.074067414,-0.0888809
766,7.659999999999881,-0.5499711,-0.12494631,-0.85498893,-0.16600263,0.074067414,-0.0888809
767,7.669999999999881,-0.5511297,-0.16250949,-0.8628552,-0.20769419,0.087201014,-0.1001819
768,7.679999999999881,-0.56094736,-0.16689998,-0.85120827,-0.20769419,0.087201014,-0.1001819
769,7.6899999999998805,-0.56094736,-0.16689998,-0.85120827,-0.21960606,0.052839845,-0.09758572
770,7.69999999999988,-0.57387495,-0.11421398,-0.81053513,-0.2191479,-0.016646078,-0.09239337
771,7.70999999999988,-0.57387495,-0.11421398,-0.81053513,-0.19929479,-0.06169739,-0.079870634
772,7.71999999999988,-0.5306407,-0.084212236,-0.8094985,-0.04627304,-0.0936151,-0.021380283
773,7.72999999999988,-0.5306407,-0.084212236,-0.8094985,-0.04627304,-0.0936151,-0.021380283
774,7.739999999999879,-0.5332628,-0.09555435,-0.83181685,-0.001985312,0.02275473,0.013897184
775,7.749999999999879,-0.5422877,-0.11366516,-0.8463298,-0.0106901415,0.03481932,0.016340645
776,7.759999999999879,-0.55576414,-0.10927467,-0.8211454,-0.038789943,0.017562376,0.030848695
777,7.769999999999879,-0.5579594,-0.0834195,-0.80687636,-0.03359759,-0.03604105,0.048258353
778,7.779999999999879,-0.5579594,-0.0834195,-0.80687636,-0.03359759,-0.03604105,0.048258353
779,7.789999999999878,-0.5533859,-0.0512225,-0.7984612,-0.0065668016,-0.06994407,0.06566802
780,7.799999999999878,-0.5458855,-0.037136313,-0.82828003,0.09132435,-0.06811147,0.089491755
781,7.809999999999878,-0.5471661,-0.08409027,-0.8730387,0.12873985,0.007788532,0.089491755
782,7.819999999999878,-0.56003267,-0.11049425,-0.88066113,0.12003502,0.03573562,0.0795652
783,7.8299999999998775,-0.58430237,-0.1451914,-0.8712093,0.08323039,0.05131268,0.053450707
784,7.839999999999877,-0.59466887,-0.16464376,-0.84084177,0.033444874,0.020463986,0.026419923
785,7.849999999999877,-0.6007668,-0.16952209,-0.81748676,0.021380283,-0.00030543262,0.019089539
786,7.859999999999877,-0.5850951,-0.1536675,-0.78583854,0.0009162979,-0.04932737,0.014202617
787,7.869999999999877,-0.5608254,-0.12580003,-0.7898022,-0.033444874,-0.029932396,0.0041233404
788,7.879999999999876,-0.5452148,-0.067321,-0.8230359,-0.033444874,-0.029932396,0.0041233404
789,7.889999999999876,-0.5452148,-0.067321,-0.8230359,-0.055741455,0.0015271631,-0.0021380284
790,7.899999999999876,-0.52179873,-0.04677102,-0.84206134,-0.059406646,0.02107485,-0.008399397
791,7.909999999999876,-0.5061271,-0.0617719,-0.84023196,-0.04718934,0.029626964,-0.010842858
792,7.919999999999876,-0.5061271,-0.0617719,-0.84023196,-0.033750303,0.020005837,-0.011911872
793,7.929999999999875,-0.5347873,-0.10671354,-0.8219382,-0.041080687,0.017562376,-0.013133603
794,7.939999999999875,-0.55436164,-0.124336526,-0.8034005,-0.06688975,0.032070424,-0.014660766
795,7.949999999999875,-0.58119243,-0.15025267,-0.7882777,-0.123242065,0.047494773,-0.02733622
796,7.959999999999875,-0.59088814,-0.15275282,-0.7883387,-0.13179417,0.04260785,-0.031001411
797,7.9699999999998745,-0.60405964,-0.13482493,-0.8008394,-0.12293663,0.012064588,-0.024740042
798,7.979999999999874,-0.5966202,-0.11390909,-0.8219992,-0.12293663,0.012064588,-0.024740042
799,7.989999999999874,-0.579607,-0.08512692,-0.8392563,-0.06795876,0.011301007,-0.005955936
800,7.999999999999874,-0.5471051,-0.041099958,-0.8491959,-0.023823744,0.0030543262,0.007788532
801,8.009999999999874,-0.5471051,-0.041099958,-0.8491959,-0.01160644,-0.0018325958,0.01282817
802,8.019999999999873,-0.5124079,-0.038965687,-0.85620844,0.025198191,-0.025961773,0.03145956
803,8.029999999999873,-0.51472515,-0.058966853,-0.8593794,0.036193766,-0.018478673,0.03634648
804,8.039999999999873,-0.5205182,-0.080919355,-0.85285467,0.0346666,0.0022907446,0.038789943
805,8.049999999999873,-0.5321652,-0.10433535,-0.84291506,0.033292156,0.020463986,0.04230242
806,8.059999999999873,-0.5408852,-0.112689495,-0.84096366,0.034513887,0.027794369,0.04230242
807,8.069999999999872,-0.56509393,-0.12695862,-0.85175705,0.029626964,0.024129177,0.04596761
808,8.079999999999872,-0.58259493,-0.12128756,-0.8598063,0.016340645,0.011911872,0.041080687
809,8.089999999999872,-0.58753425,-0.11397006,-0.85456204,0.0016798794,0.006872234,0.03604105
810,8.099999999999872,-0.59521765,-0.093481064,-0.8290728,-0.004428773,0.001985312,0.025045475
811,8.109999999999872,-0.5950957,-0.08165111,-0.8004736,0.06337727,-0.042760566,0.014660766
812,8.119999999999871,-0.5893027,-0.07091877,-0.80443716,0.11010846,-0.0729984,0.020005837
813,8.129999999999871,-0.5893027,-0.07091877,-0.80443716,0.11010846,-0.0729984,0.020005837
814,8.139999999999871,-0.5670453,-0.056283772,-0.845781,0.16707164,-0.14828753,0.025503624
815,8.14999999999987,-0.54692215,-0.05232013,-0.8607819,0.1797471,-0.20922135,0.018478673
816,8.15999999999987,-0.54692215,-0.05232013,-0.8607819,0.1797471,-0.20922135,0.018478673
817,8.16999999999987,-0.5469831,-0.06299148,-0.8445615,0.19746219,-0.2591596,0.0065668016
818,8.17999999999987,-0.5469831,-0.06299148,-0.8445615,0.22800545,-0.24190263,-0.00061086525
819,8.18999999999987,-0.52734786,-0.07366284,-0.85492796,0.26083946,-0.20387627,-0.015271631
820,8.19999999999987,-0.5263112,-0.0746385,-0.85883063,0.27046058,-0.18066339,-0.022602014
821,8.20999999999987,-0.5207621,-0.084883004,-0.8718192,0.2677117,-0.12950343,-0.038789943
822,8.21999999999987,-0.52990896,-0.11756783,-0.8622454,0.24297164,-0.069791354,-0.06246097
823,8.229999999999869,-0.5519834,-0.1390325,-0.8373049,0.24297164,-0.069791354,-0.06246097
824,8.239999999999869,-0.56527686,-0.14732568,-0.81980395,0.22800545,-0.04184427,-0.076052725
825,8.249999999999869,-0.5657647,-0.14592315,-0.82035273,0.22708915,-0.06994407,-0.077121735
826,8.259999999999868,-0.5478978,-0.14153264,-0.85431814,0.19272798,-0.053145275,-0.08475755
827,8.269999999999868,-0.54448295,-0.14006914,-0.8582208,0.17058411,-0.039858956,-0.09117164
828,8.279999999999868,-0.5296041,-0.14811839,-0.8272434,0.08582657,0.013286319,-0.11881329
829,8.289999999999868,-0.5376533,-0.15391143,-0.79901004,-0.00992656,0.056505036,-0.14401148
830,8.299999999999867,-0.56210595,-0.16427788,-0.7830335,-0.055436023,0.081855945,-0.1518
831,8.309999999999867,-0.5791801,-0.16872935,-0.78315544,-0.055436023,0.081855945,-0.1518
832,8.319999999999867,-0.5821071,-0.1683025,-0.7826676,-0.11071932,0.10598512,-0.15470162
833,8.329999999999867,-0.5813144,-0.15311868,-0.7716304,-0.11071932,0.09743301,-0.14355333
834,8.339999999999867,-0.5813144,-0.15311868,-0.7716304,-0.11071932,0.09743301,-0.14355333
835,8.349999999999866,-0.52899426,-0.12549512,-0.7539464,-0.05390886,0.018478673,-0.11728613
836,8.359999999999866,-0.5196035,-0.12933682,-0.76449585,-0.03283401,-0.022907447,-0.109650314
837,8.369999999999866,-0.5196035,-0.12933682,-0.76449585,-0.03283401,-0.022907447,-0.109650314
838,8.379999999999866,-0.50423676,-0.13519081,-0.78766793,-0.010537425,-0.07269296,-0.08109236
839,8.389999999999866,-0.49929744,-0.14000817,-0.7914486,-0.0106901415,-0.06169739,-0.065209866
840,8.399999999999865,-0.5096029,-0.14592315,-0.7841921,-0.024740042,-0.019089539,-0.036193766
841,8.409999999999865,-0.5096029,-0.14592315,-0.7841921,-0.024740042,-0.019089539,-0.036193766
842,8.419999999999865,-0.53015286,-0.1484233,-0.77217925,-0.027641652,-0.004276057,0.041996986
843,8.429999999999865,-0.579668,-0.14378887,-0.7469338,-0.015577064,-0.017562376,0.076358154
844,8.439999999999864,-0.57911915,-0.14427671,-0.75321466,0.010231993,-0.04062254,0.10598512
845,8.449999999999864,-0.5681429,-0.14817938,-0.7740086,0.049480084,-0.069485925,0.13332134
846,8.459999999999864,-0.5575325,-0.1501917,-0.81480366,0.06154467,-0.07192938,0.15057829
847,8.469999999999864,-0.5572886,-0.1630583,-0.87657547,0.041996986,-0.073303826,0.1479821
848,8.479999999999864,-0.5572886,-0.1630583,-0.87657547,-0.008246681,-0.061391957,0.12797627
849,8.489999999999863,-0.562045,-0.1299466,-0.8618796,-0.10629055,0.0050396384,0.065973446
850,8.499999999999863,-0.562045,-0.1299466,-0.8618796,-0.10629055,0.0050396384,0.065973446
851,8.509999999999863,-0.5804607,-0.11336028,-0.8335242,-0.13332134,0.026725354,0.03634648
852,8.519999999999863,-0.5804607,-0.11336028,-0.8335242,-0.15286903,0.040011674,0.009315695
853,8.529999999999863,-0.6055231,-0.11878742,-0.81035215,-0.14431691,0.05467244,0.004428773
854,8.539999999999862,-0.6124138,-0.11982407,-0.8040713,-0.12980886,0.068264194,0.008093964
855,8.549999999999862,-0.60259616,-0.12610492,-0.8029127,-0.10644327,0.059864793,0.008246681
856,8.559999999999862,-0.60046184,-0.13439809,-0.81888926,-0.09789115,0.0720821,-0.0015271631
857,8.569999999999862,-0.60308397,-0.13159303,-0.85108626,-0.101556346,0.0842994,-0.020005837
858,8.579999999999862,-0.5966811,-0.12573905,-0.8632821,-0.101556346,0.0842994,-0.020005837
859,8.589999999999861,-0.5651549,-0.102140106,-0.857428,-0.10354166,0.043982297,-0.034513887
860,8.599999999999861,-0.532714,-0.09311519,-0.8410857,-0.0936151,0.018325957,-0.028252518
861,8.60999999999986,-0.50905406,-0.09244442,-0.82187724,-0.089949906,0.020922136,-0.025809057
862,8.61999999999986,-0.50039506,-0.099152125,-0.8036444,-0.09010262,0.03436117,-0.013591751
863,8.62999999999986,-0.5125299,-0.10653061,-0.80419326,-0.09758572,0.047647487,-0.00992656
864,8.63999999999986,-0.5476539,-0.119397216,-0.79169255,-0.10873401,0.056199603,0.004581489
865,8.64999999999986,-0.5476539,-0.119397216,-0.79169255,-0.11255192,0.05375614,0.009468411
866,8.65999999999986,-0.58454627,-0.09433477,-0.82553595,-0.09285152,0.020922136,0.047647487
867,8.66999999999986,-0.58454627,-0.09433477,-0.82553595,-0.09285152,0.020922136,0.047647487
868,8.67999999999986,-0.57003325,-0.068479605,-0.831085,-0.06918049,-0.026419923,0.052839845
869,8.68999999999986,-0.5511907,-0.03518498,-0.834195,-0.04337143,-0.051923547,0.047036625
870,8.699999999999859,-0.49594358,-0.039270584,-0.845781,0.014202617,-0.028405234,0.02031127
871,8.709999999999859,-0.51173717,-0.06573554,-0.8592574,0.01282817,0.008093964,0.01282817
872,8.719999999999859,-0.51173717,-0.06573554,-0.8592574,0.01282817,0.008093964,0.01282817
873,8.729999999999858,-0.51173717,-0.06573554,-0.8592574,0.01282817,0.008093964,0.01282817
874,8.739999999999858,-0.5605205,-0.13573962,-0.8627943,-0.029168816,0.0664316,-0.008399397
875,8.749999999999858,-0.61467,-0.16476572,-0.84004897,-0.09117164,0.011148291,-0.02565634
876,8.759999999999858,-0.60314494,-0.14275223,-0.8363293,-0.10064005,-0.012217305,-0.036651913
877,8.769999999999857,-0.59222966,-0.1012864,-0.83041435,-0.10430524,-0.007330383,-0.044135015
878,8.779999999999857,-0.5628987,-0.080065645,-0.80651045,-0.06872234,-0.021685716,-0.04260785
879,8.789999999999857,-0.5628987,-0.080065645,-0.80651045,-0.06872234,-0.021685716,-0.04260785
880,8.799999999999857,-0.5358849,-0.093054205,-0.81529146,-0.04428773,-0.019089539,-0.042455133
881,8.809999999999857,-0.547471,-0.107750185,-0.8220601,0.00061086525,0.0421497,-0.039858956
882,8.819999999999856,-0.55369085,-0.1273245,-0.8228529,-0.009162978,0.03970624,-0.03390302
883,8.829999999999856,-0.5608864,-0.143423,-0.819316,-0.026267206,0.022449298,-0.0290161
884,8.839999999999856,-0.5716797,-0.14543532,-0.8116327,-0.0421497,0.00290161,-0.022907447
885,8.849999999999856,-0.5948518,-0.10171325,-0.81577927,-0.04917465,-0.031306844,-0.009315695
886,8.859999999999856,-0.59497374,-0.08073642,-0.8116937,-0.0009162979,-0.1067487,0.0022907446
887,8.869999999999855,-0.59497374,-0.08073642,-0.8116937,-0.0009162979,-0.1067487,0.0022907446
888,8.879999999999855,-0.5757653,-0.059088815,-0.79218036,0.05421429,-0.119729586,0.0038179078
889,8.889999999999855,-0.54631233,-0.05689356,-0.77150846,0.088422745,-0.11346822,0.0041233404
890,8.899999999999855,-0.53814113,-0.07335794,-0.7483363,0.19929479,-0.061391957,0.038789943
891,8.909999999999854,-0.5505809,-0.08713923,-0.76388603,0.21991149,-0.046578474,0.062155537
892,8.919999999999854,-0.56917953,-0.10049367,-0.79510736,0.21868975,-0.047800206,0.075594574
893,8.929999999999854,-0.58094853,-0.11092111,-0.83114606,0.21746802,-0.052687127,0.07925977
894,8.939999999999854,-0.5849122,-0.122751065,-0.86706275,0.21029036,-0.07467828,0.07192938
895,8.949999999999854,-0.5681429,-0.13976426,-0.88084406,0.19837849,-0.11026118,0.061086524
896,8.959999999999853,-0.5481417,-0.13964228,-0.884076,0.17287487,-0.11530081,0.03772093
897,8.969999999999853,-0.54009247,-0.12836114,-0.86657494,0.13973543,-0.09117164,0.016493361
898,8.979999999999853,-0.5633255,-0.11811664,-0.834256,0.10644327,-0.049938235,-0.0021380284
899,8.989999999999853,-0.59838855,-0.1153116,-0.7923023,0.08399397,0.009773844,-0.00992656
900,8.999999999999853,-0.63485414,-0.12171442,-0.75162923,0.09590584,0.040317107,-0.0013744468
901,9.009999999999852,-0.6472329,-0.110555224,-0.7338843,0.13637567,0.029626964,0.020922136
902,9.019999999999852,-0.62540233,-0.07969977,-0.7408359,0.21120666,-0.033292156,0.05955936
903,9.029999999999852,-0.5582643,-0.0570765,-0.79553425,0.3378085,-0.11178834,0.101098195
904,9.039999999999852,-0.5582643,-0.0570765,-0.79553425,0.3378085,-0.11178834,0.101098195
905,9.049999999999851,-0.5458245,-0.06579652,-0.8133401,0.35353827,-0.09208794,0.110872045
906,9.059999999999851,-0.5330799,-0.1062867,-0.8473056,0.3408628,-0.03359759,0.116675265
907,9.069999999999851,-0.5461904,-0.1425693,-0.87962455,0.29901853,-0.004581489,0.11255192
908,9.07999999999985,-0.5689966,-0.16409494,-0.87468517,0.24358252,0.042760566,0.101098195
909,9.08999999999985,-0.6358908,-0.18330337,-0.80401033,0.19013181,0.15088372,0.0720821
910,9.09999999999985,-0.66638035,-0.181474,-0.7780332,0.19013181,0.15088372,0.0720821
911,9.10999999999985,-0.66638035,-0.181474,-0.7780332,0.20616703,0.14859296,0.078343466
912,9.11999999999985,-0.66320944,-0.16482669,-0.7660203,0.20616703,0.14859296,0.078343466
913,9.12999999999985,-0.6034498,-0.14006914,-0.75742227,0.31627548,0.13103059,0.116980694
914,9.13999999999985,-0.56686234,-0.13744704,-0.7666911,0.3911065,0.11804971,0.121256754
915,9.14999999999985,-0.52826256,-0.16415593,-0.8060836,0.40332377,0.11209377,0.13240504
916,9.15999999999985,-0.4941752,-0.18598646,-0.83956116,0.33841935,0.08857546,0.14309518
917,9.169999999999849,-0.46405149,-0.20732918,-0.86584324,0.33841935,0.08857546,0.14309518
918,9.179999999999849,-0.4616733,-0.1999507,-0.8620015,0.08093964,0.15515977,0.09590584
919,9.189999999999849,-0.47618634,-0.1770835,-0.8414515,-0.03313944,0.21426098,0.058184914
920,9.199999999999848,-0.49405318,-0.14013013,-0.82846296,-0.13454308,0.22693644,0.004886922
921,9.209999999999848,-0.500578,-0.12311694,-0.8228529,-0.17944166,0.19730948,-0.030695979
922,9.219999999999848,-0.49600452,-0.09811548,-0.80462015,-0.21685717,0.14569137,-0.06734789
923,9.229999999999848,-0.49838275,-0.08976133,-0.76772773,-0.24556783,0.08323039,-0.0917825
924,9.239999999999847,-0.5000902,-0.089700356,-0.74187255,-0.25396723,0.061239243,-0.09666943
925,9.249999999999847,-0.50570023,-0.077931374,-0.7211396,-0.25289822,0.08078693,-0.10781772
926,9.259999999999847,-0.52984804,-0.06988213,-0.7502267,-0.25335637,0.16126843,-0.122783914
927,9.269999999999847,-0.6249145,-0.122507155,-0.86456263,-0.25350907,0.19058995,-0.13026701
928,9.279999999999847,-0.6249145,-0.122507155,-0.86456263,-0.25228736,0.17470746,-0.1142318
929,9.289999999999846,-0.5776557,-0.16293633,-0.93718886,-0.23014349,-0.016798794,-0.10598512
930,9.299999999999846,-0.5776557,-0.16293633,-0.93718886,-0.22708915,-0.040011674,-0.15974127
931,9.309999999999846,-0.5377143,-0.19830425,-0.96316594,-0.22708915,-0.040011674,-0.15974127
932,9.319999999999846,-0.5153959,-0.20982932,-0.9467016,-0.39920044,0.11133019,-0.2593123
933,9.329999999999846,-0.5416169,-0.20354846,-0.9143826,-0.44974953,0.17073683,-0.28680122
934,9.339999999999845,-0.5758263,-0.19190145,-0.8578549,-0.4877759,0.19730948,-0.29810223
935,9.349999999999845,-0.57344806,-0.19123067,-0.8037664,-0.42378777,0.1282817,-0.26557365
936,9.359999999999845,-0.56186205,-0.19013305,-0.79486346,-0.42378777,0.1282817,-0.26557365
937,9.369999999999845,-0.56186205,-0.19013305,-0.79486346,-0.42378777,0.1282817,-0.26557365
938,9.379999999999844,-0.56186205,-0.19013305,-0.79486346,-0.36483926,0.08475755,-0.22953261
939,9.389999999999844,-0.442038,-0.11494574,-0.83114606,-0.23808473,0.1432479,0.015577064
940,9.399999999999844,-0.3715461,-0.107628234,-0.81687695,-0.23304509,0.12980886,0.0010690142
941,9.409999999999844,-0.3881324,-0.10482319,-0.8161452,-0.23167065,0.13713925,-0.043066
942,9.419999999999844,-0.48307696,-0.08793196,-0.8357805,-0.2415972,0.16508633,-0.039553523
943,9.429999999999843,-0.51295674,-0.072016396,-0.8343169,-0.24678956,0.17486018,-0.012675454
944,9.439999999999843,-0.523933,-0.051588375,-0.8215723,-0.23197608,0.14080444,0.012064588
945,9.449999999999843,-0.53192127,-0.027196707,-0.81120586,-0.20005837,0.1142318,0.023365596
946,9.459999999999843,-0.54497087,0.04542948,-0.772789,-0.14110987,0.09025534,0.027488936
947,9.469999999999843,-0.54497087,0.04542948,-0.772789,-0.077121735,0.058948494,0.039095376
948,9.479999999999842,-0.51966447,-0.0015854583,-0.74022615,-0.024281893,0.028710667,0.05177083
949,9.489999999999842,-0.520945,-0.016708292,-0.74595815,0.111177474,0.051618114,0.103847094
950,9.499999999999842,-0.54801977,-0.07110171,-0.7859605,0.14477506,0.1385137,0.098807454
951,9.509999999999842,-0.5928395,-0.13250773,-0.8475495,0.12003502,0.18219055,0.07651087
952,9.519999999999841,-0.6126577,-0.17812014,-0.88913727,0.06780604,0.15378532,0.05421429
953,9.529999999999841,-0.62534136,-0.20995127,-0.9200537,-0.01572978,0.047036625,0.022296581
954,9.539999999999841,-0.5991203,-0.18202282,-0.92840785,-0.05879578,-0.066737026,-0.008093964
955,9.54999999999984,-0.56003267,-0.11744587,-0.9253589,-0.061850104,-0.12064589,-0.03848451
956,9.55999999999984,-0.5266161,-0.062686585,-0.9320666,-0.054367006,-0.1217149,-0.06658431
957,9.56999999999984,-0.5266161,-0.062686585,-0.9320666,-0.054367006,-0.1217149,-0.06658431
958,9.57999999999984,-0.4364279,-0.028111396,-0.95743394,-0.06307184,-0.06704246,-0.12186762
959,9.58999999999984,-0.4255736,-0.03878275,-0.9663978,-0.06780604,-0.07437284,-0.13041973
960,9.59999999999984,-0.39374247,-0.08482202,-0.95432395,-0.10919216,-0.0795652,-0.17104226
961,9.60999999999984,-0.4425258,-0.11171384,-0.8838321,-0.13622294,-0.050549097,-0.1994475
962,9.61999999999984,-0.4727715,-0.12098267,-0.82553595,-0.13179417,-0.0016798794,-0.18860464
963,9.62999999999984,-0.50978583,-0.099152125,-0.78815573,-0.101556346,0.021838432,-0.15057829
964,9.639999999999839,-0.49923643,-0.079089984,-0.78443605,-0.07345655,0.012217305,-0.10873401
965,9.649999999999839,-0.49923643,-0.079089984,-0.78443605,0.0041233404,-0.0786489,-0.07360926
966,9.659999999999838,-0.49710217,-0.08610259,-0.8476714,0.037415497,-0.106595986,-0.056199603
967,9.669999999999838,-0.5292992,-0.11708001,-0.87535596,0.043218717,-0.085673854,-0.040317107
968,9.679999999999838,-0.56277674,-0.15580177,-0.872307,0.03924809,-0.06383542,-0.029474247
969,9.689999999999838,-0.5632036,-0.16702195,-0.86925805,0.028252518,-0.067500606,-0.023365596
970,9.699999999999838,-0.60351086,-0.21769562,-0.80663246,0.006414085,-0.08353582,-0.025961773
971,9.709999999999837,-0.60351086,-0.21769562,-0.80663246,-0.029168816,-0.100792766,-0.007788532
972,9.719999999999837,-0.59674215,-0.20043853,-0.75711733,-0.029168816,-0.100792766,-0.007788532
973,9.729999999999837,-0.56545985,-0.1299466,-0.7118708,-0.056352317,-0.089949906,0.018936822
974,9.739999999999837,-0.53783625,-0.09226148,-0.71595645,-0.02275473,-0.0346666,0.07651087
975,9.749999999999837,-0.51789606,-0.094212815,-0.763947,0.04153884,0.012217305,0.1133155
976,9.759999999999836,-0.50905406,-0.11043327,-0.8113888,0.074067414,0.05879578,0.13790283
977,9.769999999999836,-0.5095419,-0.13098325,-0.845781,0.076358154,0.08811731,0.14874569
978,9.779999999999836,-0.5171033,-0.14671588,-0.8598063,0.0580322,0.07819075,0.14630222
979,9.789999999999836,-0.5416169,-0.17952266,-0.8757219,-0.007483099,0.011911872,0.1301143
980,9.799999999999836,-0.54399514,-0.18494982,-0.87858784,-0.07315111,-0.044745877,0.11407909
981,9.809999999999835,-0.53399456,-0.16824152,-0.86748964,-0.12186762,-0.064599,0.09682214
982,9.819999999999835,-0.5266771,-0.1325687,-0.8376099,-0.17302758,-0.085673854,0.0720821
983,9.829999999999835,-0.5202743,-0.09781059,-0.81754774,-0.19486602,-0.10415252,0.06337727
984,9.839999999999835,-0.5030171,-0.024025792,-0.77925277,-0.19486602,-0.10415252,0.06337727
985,9.849999999999834,-0.5030171,-0.024025792,-0.77925277,-0.19486602,-0.10415252,0.06337727
986,9.859999999999834,-0.5030171,-0.024025792,-0.77925277,-0.18997909,-0.112704635,0.062308256
987,9.869999999999834,-0.524116,-0.0038416875,-0.82846296,-0.0290161,-0.05787948,0.13026701
988,9.879999999999834,-0.54960525,-0.08451713,-0.86523336,-0.0036651916,-0.03940081,0.15363261
989,9.889999999999834,-0.5605815,-0.111896776,-0.872368,-0.014813482,-0.013744468,0.15103643
990,9.899999999999833,-0.5697893,-0.122202255,-0.87133133,-0.03680463,0.00076358154,0.12751812
991,9.909999999999833,-0.58003384,-0.118360564,-0.8714533,-0.067500606,0.022449298,0.10903945
992,9.919999999999833,-0.58003384,-0.118360564,-0.8714533,-0.067500606,0.022449298,0.10903945
993,9.929999999999833,-0.59521765,-0.10579886,-0.8737095,-0.06582073,-0.011759156,0.06872234
994,9.939999999999833,-0.59521765,-0.102384016,-0.87718534,-0.049632803,-0.029932396,0.0627664
995,9.949999999999832,-0.58997345,-0.07701669,-0.88084406,0.00076358154,-0.055283304,0.05467244
996,9.959999999999832,-0.582534,-0.05689356,-0.85620844,0.025198191,-0.03924809,0.06093381
997,9.969999999999832,-0.5697284,-0.03969744,-0.82846296,0.044593163,-0.024587326,0.07192938
998,9.979999999999832,-0.5578984,-0.021037813,-0.8018151,0.071318515,-0.0096211275,0.09040806
999,9.989999999999831,-0.55228835,-0.009756667,-0.78772885,0.08460484,-0.0022907446,0.09773844
1000,9.999999999999831,-0.5524103,-0.0018903542,-0.77516717,0.13209961,0.022449298,0.122478485
