id,timestamp,acc_x,acc_y,acc_z,gyro_x,gyro_y,gyro_z
0,0,-0.7510804,0.27605268,-0.6939429,0.3100141,-0.18753563,0.3727805
1,0.01,-0.7022971,0.25306356,-0.6799787,0.13347405,-0.01038471,0.3819435
2,0.02,-0.7127855,0.26239336,-0.61784095,0.0050396384,0.07544186,0.45158213
3,0.03,-0.6846131,0.2587346,-0.6043645,0.00045814895,0.002443461,0.4886922
4,0.04,-0.6025351,0.26306412,-0.6279634,0.02611449,-0.14263703,0.49312097
5,0.05,-0.54497087,0.30392018,-0.60448647,0.0842994,-0.3474296,0.44303003
6,0.060000000000000005,-0.50899315,0.30581054,-0.5515566,0.11056661,-0.40958515,0.42012256
7,0.07,-0.5174692,0.31568915,-0.48496732,0.3397938,-0.6768387,0.31749722
8,0.08,-0.52807957,0.29952967,-0.48636985,0.5681047,-0.8622363,0.2780964
9,0.09,-0.5780825,0.25330746,-0.52917725,0.67271537,-0.9286679,0.2826779
10,0.09999999999999999,-0.6252194,0.21714681,-0.6218046,0.88040954,-0.9957104,0.257327
11,0.10999999999999999,-0.65052575,0.17171735,-0.7443117,0.9014844,-1.0175488,0.25152376
12,0.11999999999999998,-0.6553431,0.11982407,-0.8192551,0.79549927,-0.9633345,0.27748555
13,0.12999999999999998,-0.73815286,0.052442085,-0.83675617,0.52213705,-0.8049677,0.32895094
14,0.13999999999999999,-0.78657025,0.05366167,-0.82071865,0.30665436,-0.7147123,0.39202276
15,0.15,-0.93066406,0.04622221,-0.7338843,0.124311075,-0.6400341,0.47739118
16,0.16,-1.1568358,0.00073175,-0.65759933,0.20433442,-0.6737844,0.43768495
17,0.17,-1.5701525,-0.067625895,-0.66577053,0.37980548,-0.84116143,0.41630468
18,0.18000000000000002,-1.8354731,-0.19324298,-0.7263228,0.8035932,-1.4903585,0.43264532
19,0.19000000000000003,-2.1228678,-0.44167212,-0.7446776,1.2486086,-2.2696698,0.54993147
20,0.20000000000000004,-2.218971,-0.61082834,-0.7308963,1.6290249,-2.7931814,0.7122689
21,0.21000000000000005,-2.3635526,-0.82840204,-0.6687586,1.9596558,-2.973692,0.9439395
22,0.22000000000000006,-2.4266658,-1.1670803,-0.6905281,2.1149683,-2.941927,1.1575897
23,0.23000000000000007,-2.4106283,-1.3033078,-0.65461135,2.1856759,-2.770121,1.4167492
24,0.24000000000000007,-2.2956216,-1.4804523,-0.64442784,2.0563252,-1.767844,2.095726
25,0.25000000000000006,-2.2956216,-1.4804523,-0.64442784,2.0563252,-1.767844,2.095726
26,0.26000000000000006,-1.8839513,-2.0195692,-0.6970529,-0.11102476,2.9074132,4.8091893
27,0.2700000000000001,-1.7899216,-2.131039,-0.67473453,-0.783282,3.740786,5.76443
28,0.2800000000000001,-0.9632879,-2.5273426,-0.47935724,-1.2412782,4.1770964,6.4362288
29,0.2900000000000001,0.33459267,-2.815896,-0.09342009,-3.029586,4.7952924,8.494844
30,0.3000000000000001,1.3927032,-3.002919,0.4764912,-3.7194057,4.6983175,8.654738
31,0.3100000000000001,1.8173622,-3.1177428,0.78327745,-3.8321104,4.6288314,8.326399
32,0.3200000000000001,1.8454734,-3.2669592,0.99060655,-3.556763,4.060116,7.2418075
33,0.3300000000000001,1.6205213,-3.2626295,0.9585315,-3.4903314,3.6879463,7.06878
34,0.34000000000000014,0.948531,-3.4064183,0.8834052,-3.5311065,2.1235204,7.4957747
35,0.35000000000000014,0.79132664,-3.655823,0.9082847,-3.7261252,1.2191343,8.292191
36,0.36000000000000015,0.79242426,-3.7230222,0.9354204,-3.7261252,1.2191343,8.292191
37,0.37000000000000016,1.2575734,-3.9671216,1.5610057,-3.8815904,0.14950927,9.466426
38,0.38000000000000017,2.3198304,-4.0990806,2.122014,-3.2733214,-1.3643675,10.699916
39,0.3900000000000002,2.7986999,-4.0201735,2.2515337,-2.5196664,-1.541213,10.868056
40,0.4000000000000002,3.0599346,-3.8515663,2.2009213,-2.2780693,-0.7965683,10.685408
41,0.4100000000000002,3.0831678,-3.7826598,2.0799384,-2.4327707,0.45662177,10.37463
42,0.4200000000000002,3.014383,-3.6048443,1.8773046,-3.12595,1.6259706,10.05362
43,0.4300000000000002,2.8864489,-3.5921,1.8431562,-3.9255729,2.5251641,9.896781
44,0.4400000000000002,2.81553,-3.5306938,1.9835303,-5.0674324,3.2417092,9.80958
45,0.45000000000000023,3.024567,-3.3187912,2.6043591,-5.4012704,2.7791314,9.696875
46,0.46000000000000024,3.2137852,-3.2306151,2.8376045,-5.0846896,2.0790799,9.480323
47,0.47000000000000025,3.3562934,-3.061825,2.7677224,-4.564996,1.3736832,9.092576
48,0.48000000000000026,3.457458,-2.8431537,2.5136223,-4.731915,1.1777482,8.578381
49,0.49000000000000027,3.6942399,-2.7158902,2.3936152,-4.869207,1.2731959,8.471937
50,0.5000000000000002,3.9157772,-2.4020305,2.5800896,-6.3201647,2.9793425,7.177361
51,0.5100000000000002,3.7002158,-2.0740235,2.838946,-6.83772,3.6940548,6.549697
52,0.5200000000000002,3.606247,-1.8077275,3.068167,-7.009526,4.170835,6.1894393
53,0.5300000000000002,3.7577803,-1.2433653,3.375136,-6.8212266,4.480391,5.859114
54,0.5400000000000003,4.3547053,-0.47502774,3.228908,-6.269768,5.0535355,4.854546
55,0.5500000000000003,4.460992,-0.13958131,2.9266343,-6.1785965,5.3467507,3.9767327
56,0.5600000000000003,3.992245,0.5511297,2.344222,-6.7757173,5.7367883,2.1229095
57,0.5700000000000003,3.6544814,0.87749016,2.3412342,-7.090924,5.706245,1.7931949
58,0.5800000000000003,3.5663664,1.1058571,2.5924072,-7.83511,4.541936,1.7504344
59,0.5900000000000003,4.6432586,1.0204864,3.8171742,-7.641466,1.7006488,1.9052887
60,0.6000000000000003,5.9222965,1.1371396,5.626243,-6.8056498,-0.11759156,1.9265163
61,0.6100000000000003,6.9216843,1.402155,6.837655,-5.347209,-1.1325442,1.8750509
62,0.6200000000000003,8.241579,1.6515597,7.589467,-3.3724344,-0.93660915,1.3741413
63,0.6300000000000003,8.823503,1.6796101,7.4775095,-0.75670934,0.796721,-0.5138904
64,0.6400000000000003,8.811917,1.5241743,7.06218,0.26007587,1.9262109,-1.9937115
65,0.6500000000000004,8.692702,0.7096146,6.6431313,0.9955576,3.3741143,-3.974442
66,0.6600000000000004,7.1252933,-1.0355482,5.742957,2.1190915,5.3560667,-6.363536
67,0.6700000000000004,5.1811557,-1.6339977,4.793755,2.8299859,6.0596304,-7.357719
68,0.6800000000000004,4.503311,-1.7601637,4.605269,3.0363057,5.910579,-7.446295
69,0.6900000000000004,2.9963334,-2.0767064,4.8274765,4.3056836,3.7406332,-6.9829535
70,0.7000000000000004,2.6613748,-2.2418382,5.031818,5.9681535,1.7062993,-6.430578
71,0.7100000000000004,2.7682104,-2.4289222,4.8422337,7.3070173,0.34804046,-6.1291165
72,0.7200000000000004,2.7682104,-2.4289222,4.8422337,7.3070173,0.34804046,-6.1291165
73,0.7300000000000004,2.725952,-2.3924568,4.905652,6.665914,0.9798279,-6.2506785
74,0.7400000000000004,3.3948324,-3.3274503,3.5715501,8.948871,0.6104071,-6.5419087
75,0.7500000000000004,3.4111137,-3.474349,3.3386703,9.188787,1.2599095,-6.720434
76,0.7600000000000005,3.4317856,-3.6677139,3.1862836,9.48521,1.2357804,-6.891018
77,0.7700000000000005,3.389039,-3.945901,2.848154,10.022772,0.7492262,-7.253872
78,0.7800000000000005,3.3408659,-4.0407233,2.5481365,10.244363,0.43783766,-7.4530144
79,0.7900000000000005,3.40404,-4.052798,2.3276968,10.447475,-0.038789943,-7.8424406
80,0.8000000000000005,3.3561714,-4.1086545,1.724613,10.394483,-0.46975538,-8.468577
81,0.8100000000000005,3.2888503,-3.9543772,1.490087,9.952216,-0.84665924,-8.805012
82,0.8200000000000005,3.358062,-3.901386,1.457463,8.883508,-0.990518,-9.158703
83,0.8300000000000005,3.3970885,-3.8914464,1.4494748,8.224384,-0.9596693,-9.375712
84,0.8400000000000005,3.228542,-3.7689395,1.3673359,7.772344,-0.9859365,-9.546144
85,0.8500000000000005,2.961697,-3.6604574,1.2225103,6.9579077,-0.93523467,-9.648158
86,0.8600000000000005,2.9139504,-3.6199064,1.1995821,6.0005293,-0.8562804,-9.226356
87,0.8700000000000006,2.6332633,-3.2740324,1.079941,5.782145,-0.8512407,-8.964601
88,0.8800000000000006,2.5247815,-3.1103644,0.9618245,5.6743274,-0.84665924,-8.759808
89,0.8900000000000006,2.4953284,-3.0146272,0.9233466,5.5713964,-1.0089967,-8.329147
90,0.9000000000000006,2.2572048,-2.6924133,0.8059007,5.7088413,-1.8886427,-7.8622937
91,0.9100000000000006,2.040058,-2.5561857,0.5491174,5.783214,-3.6767979,-7.357719
92,0.9200000000000006,1.9176729,-2.5480144,0.44886765,5.3108625,-4.449695,-7.2462363
93,0.9300000000000006,1.3895323,-2.8929126,0.5866806,5.3447657,-4.4661884,-6.9585185
94,0.9400000000000006,1.343371,-3.1452444,0.42606148,5.4750323,-4.401131,-6.4832654
95,0.9500000000000006,1.3274555,-3.6661284,-0.41898784,5.0656,-4.4452662,-5.7613754
96,0.9600000000000006,0.8346828,-3.284765,-0.752178,3.8789942,-4.0063596,-5.160284
97,0.9700000000000006,0.29221216,-3.0157247,-0.6196093,3.0827315,-3.681074,-4.7470336
98,0.9800000000000006,0.09903017,-2.9816983,-0.57472867,1.9463694,-3.1380148,-4.063934
99,0.9900000000000007,-0.79199743,-2.8058953,-0.87870985,1.3808609,-2.9530754,-3.738037
100,1.0000000000000007,-1.0131688,-2.8769972,-1.0413412,0.41126502,-2.694832,-3.3426547
101,1.0100000000000007,-1.3297727,-3.0012727,-0.8938326,-0.6614143,-2.4339926,-3.1290045
102,1.0200000000000007,-1.4094115,-3.000541,-0.8259628,-1.5118915,-2.1146626,-3.0758593
103,1.0300000000000007,-1.4812449,-3.003224,-0.7544952,-3.081357,-1.0642799,-3.3554828
104,1.0400000000000007,-1.6551576,-3.3592203,-0.5052734,-3.081357,-1.0642799,-3.3554828
105,1.0500000000000007,-3.7378402,-5.2247562,-0.13238578,-4.546365,-0.52549684,-5.739079
106,1.0600000000000007,-4.6009393,-5.60301,0.27586976,-4.463745,-1.1911873,-5.58285
107,1.0700000000000007,-5.5253224,-5.9460177,1.1528721,-2.8171577,-2.7351491,-2.7829494
108,1.0800000000000007,-6.180848,-6.0337667,1.7891898,-2.1222985,-2.6810875,-1.4367551
109,1.0900000000000007,-6.2515845,-5.832474,2.0691452,-0.2910773,-1.1078042,2.7595837
110,1.1000000000000008,-5.383058,-5.704235,1.6571699,0.63148195,0.10430524,5.320942
111,1.1100000000000008,-3.5092292,-5.534835,0.7440678,0.905455,2.7524061,10.057285
112,1.1200000000000008,-0.017683959,-5.1237745,0.044453815,-0.6719518,4.734511,12.401481
113,1.1300000000000008,2.0749383,-4.8520513,0.22001283,-2.3420575,5.86507,13.079846
114,1.1400000000000008,3.0137124,-4.7405205,0.50191957,-3.196047,6.39301,13.058925
115,1.1500000000000008,3.9032156,-4.513556,1.1625068,-3.9084685,6.5776443,12.944693
116,1.1600000000000008,5.046453,-3.946267,2.1381736,-3.5984545,5.7245708,12.564887
117,1.1700000000000008,5.5395303,-3.2980585,2.558625,-2.2970061,3.7351356,11.335826
118,1.1800000000000008,4.912238,-2.9460256,2.444228,-1.0323622,1.9431623,10.047053
119,1.1900000000000008,4.528252,-2.8023586,2.394713,-0.28802297,1.2789991,9.336465
120,1.2000000000000008,4.178963,-2.6878397,2.3055005,-0.28802297,1.2789991,9.336465
121,1.2100000000000009,3.9899278,-2.681071,2.1963477,-0.061391957,1.393689,9.177029
122,1.2200000000000009,3.3675745,-2.7885163,1.50771,-0.93477654,3.4988835,9.353722
123,1.2300000000000009,3.0657277,-2.853581,1.40807,-2.6254988,4.7702465,9.608299
124,1.2400000000000009,2.9931624,-2.9432206,1.410875,-3.550807,4.907386,9.722989
125,1.2500000000000009,2.950965,-3.06774,1.5591153,-4.4559565,4.3805146,9.761016
126,1.260000000000001,2.982186,-3.2293959,1.7066239,-4.7951393,2.6134343,9.735512
127,1.270000000000001,3.2427502,-3.1631722,1.7859578,-4.7754393,1.5161675,9.707107
128,1.280000000000001,3.3715382,-3.1228652,1.8018125,-4.9903107,0.4014912,9.569662
129,1.290000000000001,3.4679463,-2.9190726,1.7866286,-5.426316,0.9502009,9.475436
130,1.300000000000001,3.51551,-2.8408976,1.7618101,-6.09613,1.7052304,9.490097
131,1.310000000000001,3.5966122,-2.8085175,1.8216916,-6.787629,2.3122776,9.417099
132,1.320000000000001,3.8243697,-2.754307,2.0211544,-7.315875,2.2580633,8.917411
133,1.330000000000001,3.927912,-2.5953345,2.1537232,-7.226994,1.5642731,8.245459
134,1.340000000000001,3.764732,-2.320928,2.175066,-6.793127,0.6794349,7.287775
135,1.350000000000001,3.5810015,-2.127929,2.060669,-6.488305,0.24602598,6.829168
136,1.360000000000001,3.5995393,-1.9585899,1.9545043,-6.408282,0.069485925,6.7825894
137,1.370000000000001,4.2486625,-1.5357603,1.8607793,-6.7401342,0.33841935,6.8235173
138,1.380000000000001,4.9366903,-1.1678121,1.9099284,-8.294329,1.6468927,5.280319
139,1.390000000000001,5.4778805,-0.33069003,2.3348923,-9.095478,2.3232732,3.997655
140,1.400000000000001,5.02261,0.19879209,2.8106518,-9.903347,3.4959817,2.368019
141,1.410000000000001,4.477639,0.48325992,3.1895764,-10.250319,4.4150286,1.4286611
142,1.420000000000001,4.141522,0.9258467,4.139327,-10.141432,3.360828,1.1620184
143,1.430000000000001,5.143959,1.1515917,5.557824,-9.656405,1.8909334,1.4280503
144,1.440000000000001,5.8991857,1.3458712,6.465987,-7.931474,-0.45341474,1.7531832
145,1.450000000000001,7.102426,2.4050794,7.9815636,-7.5732017,-0.5682574,1.7817413
146,1.460000000000001,8.687823,2.9862719,8.792403,-4.366312,1.3177891,1.4417948
147,1.470000000000001,9.134862,2.792846,8.556109,-0.9457721,3.612657,-2.033876
148,1.480000000000001,7.625567,1.3054421,7.0924263,0.2554944,3.3950362,-3.9742892
149,1.490000000000001,6.764175,0.33386096,6.847229,0.50885075,3.4765868,-4.436714
150,1.500000000000001,6.040779,-0.3609357,6.773017,1.5247196,4.7988048,-5.191744
151,1.5100000000000011,4.6596622,-1.0190228,6.4958057,2.8122709,5.229312,-5.1401258
152,1.5200000000000011,3.620882,-1.2889777,6.0720615,5.23649,4.105625,-4.5097127
153,1.5300000000000011,3.363611,-1.466549,5.6272187,6.8519225,3.1705434,-4.066377
154,1.5400000000000011,3.3514152,-1.5950321,4.5152025,8.717963,2.4225388,-3.5877643
155,1.5500000000000012,3.4603238,-1.6200335,4.261712,9.037446,2.250122,-3.5178201
156,1.5600000000000012,3.8969347,-1.7897995,3.6834466,9.65442,2.0512855,-3.6280813
157,1.5700000000000012,4.4073305,-1.9771886,3.38971,9.930225,2.0648773,-3.880827
158,1.5800000000000012,4.8479047,-2.2781208,2.9353542,10.563846,1.8874209,-5.150816
159,1.5900000000000012,4.985352,-2.4625828,2.748941,10.680826,1.7212656,-5.653558
160,1.6000000000000012,4.9901695,-3.228786,2.1234164,10.566594,0.52687126,-8.009207
161,1.6100000000000012,4.628014,-3.6988134,1.7118683,10.318583,0.19853121,-8.525694
162,1.6200000000000012,4.3685474,-3.6967402,1.6288145,9.707259,-0.3173445,-8.88702
163,1.6300000000000012,4.2951894,-3.6805809,1.6425349,9.021411,-0.5561928,-9.0065975
164,1.6400000000000012,4.2133555,-3.705582,1.6020447,8.388402,-0.48930305,-8.941235
165,1.6500000000000012,4.2604313,-3.6251507,1.525028,7.537161,-0.15500705,-8.759502
166,1.6600000000000013,4.5164223,-3.609357,1.5556395,7.324274,-0.047800206,-8.752783
167,1.6700000000000013,4.7730837,-3.6812515,1.5742382,7.0532026,-0.08323039,-9.269269
168,1.6800000000000013,4.3383627,-3.7657075,1.6161919,7.0532026,-0.08323039,-9.269269
169,1.6900000000000013,3.7800984,-3.7951605,1.4009354,7.2862477,-0.86284715,-9.963212
170,1.7000000000000013,3.5586832,-3.7517433,1.2408041,7.8931427,-2.8964176,-10.112416
171,1.7100000000000013,2.942123,-3.3265357,0.8337072,7.8253365,-4.1361685,-9.6674
172,1.7200000000000013,2.655155,-3.1360366,0.6082062,7.4296484,-5.5917077,-8.405047
173,1.7300000000000013,2.7554655,-3.0284083,0.55186146,7.1048207,-6.8858256,-7.297091
174,1.7400000000000013,3.2517142,-2.84169,0.67930794,6.8171034,-7.836332,-6.710202
175,1.7500000000000013,3.3768435,-2.581614,0.84010994,6.2332687,-7.9507165,-6.444323
176,1.7600000000000013,3.208541,-2.4009936,0.7908998,5.5880427,-6.7880874,-6.562067
177,1.7700000000000014,2.865777,-2.7200367,0.45075798,4.9674034,-5.7894754,-7.0900073
178,1.7800000000000014,2.746502,-2.8668745,0.3246531,4.6332603,-5.6381335,-7.354512
179,1.7900000000000014,1.2048264,-3.867543,-0.66869754,3.50881,-5.560401,-7.673842
180,1.8000000000000014,0.47460085,-3.9673047,-0.75181216,1.6410894,-5.4898458,-7.400938
181,1.8100000000000014,-0.4489896,-4.1954885,0.3679483,-2.4039075,-3.5589008,-5.934556
182,1.8200000000000014,-1.0883563,-4.440381,0.8995647,-3.0595186,-2.725528,-5.7389264
183,1.8300000000000014,-2.7849185,-4.5854506,1.9077333,-4.8433976,-0.70325863,-4.9903107
184,1.8400000000000014,-3.0965831,-4.62216,2.4479477,-4.455804,-0.5859725,-4.1723623
185,1.8500000000000014,-3.1857345,-4.842417,3.3707452,-2.8605292,-0.5175556,-3.5129333
186,1.8600000000000014,-3.3340359,-4.90803,3.1224992,-1.999362,-0.4240932,-3.417333
187,1.8700000000000014,-3.781745,-5.1885953,2.523562,-1.4741706,-0.15317446,-3.297756
188,1.8800000000000014,-4.501787,-5.728993,2.9940772,-1.5777122,0.37934732,-2.6300802
189,1.8900000000000015,-4.844246,-5.841865,3.251897,-0.75228053,1.2392929,-0.820392
190,1.9000000000000015,-4.5045924,-5.737164,3.049812,0.9101892,2.0218112,1.8784106
191,1.9100000000000015,-3.8743114,-5.6570377,2.6541183,1.864208,2.4846945,3.606243
192,1.9200000000000015,-2.4482527,-5.4694047,1.9146849,2.6213756,2.965598,5.2494707
193,1.9300000000000015,-1.7609563,-5.3899484,1.6632679,3.4498615,4.028809,8.17185
194,1.9400000000000015,2.066157,-4.780584,0.6249755,3.5482109,5.694028,10.294148
195,1.9500000000000015,3.2292128,-4.3851337,0.27794304,3.1419854,6.5536675,10.5682745
196,1.9600000000000015,4.3566566,-3.706131,0.12061679,2.8008173,6.9554644,10.562013
197,1.9700000000000015,4.7059455,-3.419407,0.117140986,1.743104,7.7036214,10.088593
198,1.9800000000000015,4.9922423,-3.1480496,0.13275166,0.6032294,7.7166023,8.942456
199,1.9900000000000015,4.384768,-2.0212154,0.25903952,-1.1246029,7.0593114,7.006166
200,2.0000000000000013,3.6547863,-1.9323689,0.33684894,-1.97508,6.772663,6.6019263
201,2.010000000000001,3.3365364,-1.9510283,0.44209895,-2.8745792,6.5811567,6.4796004
202,2.020000000000001,2.7411356,-2.1112208,0.8596233,-4.287052,6.7057734,6.7625837
203,2.0300000000000007,2.3642843,-2.6236286,1.3733119,-6.275266,7.5507526,7.960185
204,2.0400000000000005,2.4791691,-3.178844,1.7224176,-6.8755937,7.325649,8.474839
205,2.0500000000000003,2.52283,-3.480691,1.8801097,-7.1639223,6.974096,8.790046
206,2.06,2.6249702,-3.846078,2.0176787,-7.4334664,6.1567583,9.453598
207,2.07,2.9326103,-4.0006604,2.1532354,-7.4817247,5.4686184,9.813245
208,2.0799999999999996,3.4587994,-4.089629,2.4281297,-7.17843,3.1070135,10.251846
209,2.0899999999999994,3.7014356,-4.142254,2.4253244,-6.7712884,2.3220515,10.169684
210,2.099999999999999,3.5228884,-3.9229727,2.0090806,-6.619183,2.2702806,9.998337
211,2.109999999999999,3.3428779,-3.9132774,1.873158,-6.985702,2.7852402,9.790795
212,2.1199999999999988,3.1298778,-3.9731586,1.7055873,-7.462635,3.4585662,9.858449
213,2.1299999999999986,3.0929244,-4.24415,1.6125331,-8.786533,3.7740781,10.179
214,2.1399999999999983,3.9770613,-4.326106,2.315867,-9.507049,1.7615826,10.137614
215,2.149999999999998,4.1873174,-4.3125687,2.487889,-9.313099,0.61758476,9.885326
216,2.159999999999998,4.1873174,-4.3125687,2.487889,-7.8108287,-2.4602597,8.811273
217,2.1699999999999977,4.895713,-3.7156436,3.7926602,-6.9200344,-3.26706,8.370075
218,2.1799999999999975,4.62588,-3.1601233,3.2431772,-4.401437,-2.069917,7.955756
219,2.1899999999999973,5.005597,-2.8955958,2.4864256,-4.6124907,0.4016439,8.220261
220,2.199999999999997,5.96236,-2.6680825,1.7096119,-6.489985,3.3771684,7.821824
221,2.209999999999997,6.7776513,-2.4578874,1.1056132,-8.093659,4.152815,6.860475
222,2.2199999999999966,6.243535,-1.7713838,1.920234,-11.421042,4.2245913,4.5367436
223,2.2299999999999964,6.363115,-1.8191304,4.2167706,-13.415059,3.1413746,3.6123517
224,2.239999999999996,6.947479,-1.7756524,5.236159,-13.496915,-0.28588495,4.0871468
225,2.249999999999996,8.272678,-0.5145422,7.46196,-12.436758,-0.87689704,4.345848
226,2.259999999999996,9.579766,0.71735895,9.120654,-10.343781,1.2513574,4.156938
227,2.2699999999999956,11.163274,1.5283818,10.928626,-9.132282,2.496301,3.150232
228,2.2799999999999954,10.745382,1.2658056,11.155712,-4.222606,3.4831536,-0.61651576
229,2.289999999999995,9.644832,0.65168434,10.968018,-1.1398746,2.4055874,-2.037541
230,2.299999999999995,7.063766,-1.4861232,9.93875,3.0705142,2.9750664,-4.4539714
231,2.3099999999999947,7.063766,-1.4861232,9.93875,5.757252,3.9570324,-5.587279
232,2.3199999999999945,4.645149,-2.5078294,6.9852242,9.855394,4.3186646,-5.5471144
233,2.3299999999999943,4.2462234,-2.6186895,4.8447337,11.98594,2.67055,-4.9017353
234,2.339999999999994,4.458675,-2.4926453,3.4861789,12.109793,2.2773056,-4.8356094
235,2.349999999999994,4.809427,-2.4139214,3.064813,11.195174,2.9362764,-5.12913
236,2.3599999999999937,4.954069,-2.4037378,2.920902,11.040015,3.1010575,-5.2128186
237,2.3699999999999934,5.4673314,-2.558686,2.5692964,10.486113,3.2432363,-5.790697
238,2.3799999999999932,5.8599153,-2.8170547,2.2552536,10.311864,2.9448287,-6.1672955
239,2.389999999999993,6.066025,-4.0140753,2.1433568,9.666026,1.264033,-8.31525
240,2.399999999999993,6.1637745,-4.622221,2.43252,9.393733,-0.43203443,-9.995741
241,2.4099999999999926,6.2417665,-4.964009,2.8317506,9.573022,-1.2583824,-10.657919
242,2.4199999999999924,6.259268,-5.4606843,3.0914,10.054231,-1.8434386,-11.305741
243,2.429999999999992,6.3667736,-5.945347,2.2105558,11.228008,-2.8371637,-12.9837885
244,2.439999999999992,6.057244,-5.758019,1.2125098,10.867292,-2.7327056,-13.4146
245,2.4499999999999917,5.8995514,-5.5536776,0.6690025,9.263925,-1.9423988,-13.647035
246,2.4599999999999915,5.7270412,-5.2495747,0.38185155,6.7030244,-1.1452196,-13.312892
247,2.4699999999999913,5.618621,-4.9223604,0.65302587,5.7925296,-1.310306,-13.031589
248,2.479999999999991,6.099258,-4.710763,1.411058,5.3104043,-1.9854648,-12.675912
249,2.489999999999991,6.451413,-4.7968655,1.8381561,5.8085647,-4.725043,-12.789991
250,2.4999999999999907,6.20585,-4.7846084,1.721015,6.3097796,-6.0115247,-13.212099
251,2.5099999999999905,5.374826,-4.624721,1.0723796,6.344752,-6.966002,-13.332745
252,2.5199999999999902,5.090663,-4.5959997,0.6327199,5.313764,-7.229285,-12.863447
253,2.52999999999999,3.8108928,-4.215429,0.55411774,3.4519994,-6.711118,-11.901182
254,2.53999999999999,3.4258096,-4.086824,0.9735934,2.4471262,-5.6844068,-10.903639
255,2.5499999999999896,2.3993473,-4.4181843,1.7144293,2.651766,-4.4283147,-10.052399
256,2.5599999999999894,2.2022016,-4.5502048,1.6668044,2.7684412,-4.2820125,-9.863793
257,2.569999999999989,0.3418492,-5.705516,1.0581106,3.098614,-4.1109705,-8.751714
258,2.579999999999989,-0.50722474,-5.6352067,1.0633547,2.63512,-4.130213,-6.767776
259,2.5899999999999888,-1.4645976,-5.8912582,1.0271941,1.5442673,-3.1094568,-4.4617596
260,2.5999999999999885,-1.9085871,-5.963031,1.0621351,0.3483459,-1.9740111,-3.3912184
261,2.6099999999999883,-2.1678092,-6.0723667,1.3659334,-1.2525792,-0.7301367,-2.325106
262,2.619999999999988,-2.5183177,-6.445925,2.0935977,-2.0447187,0.071318515,-1.7583756
263,2.629999999999988,-3.4033082,-7.1056585,2.6191163,-2.0447187,0.071318515,-1.7583756
264,2.6399999999999877,-3.4033082,-7.1056585,2.6191163,-2.0447187,0.071318515,-1.7583756
265,2.6499999999999875,-4.551668,-7.59215,2.6628382,-1.9446895,1.0948232,0.49648073
266,2.6599999999999873,-4.9571185,-7.580381,2.990967,-1.6334536,1.7047722,2.191479
267,2.669999999999987,-5.00084,-7.5223293,3.0867653,-0.8772025,2.6251934,4.6550984
268,2.679999999999987,-4.432149,-7.436105,2.900901,0.053450707,3.9061778,8.234005
269,2.6899999999999866,-2.3025734,-7.2274947,2.182871,0.36025777,4.745507,10.591182
270,2.6999999999999864,-1.4420353,-7.1527343,1.9663953,0.38820487,5.0976706,11.61881
271,2.709999999999986,-1.4420353,-7.1527343,1.9663953,0.38820487,5.0976706,11.61881
272,2.719999999999986,-1.4420353,-7.1527343,1.9663953,0.33765575,5.4075317,12.53465
273,2.7299999999999858,6.343175,-6.226095,1.6558284,-0.3324634,5.45411,15.382045
274,2.7399999999999856,6.777956,-6.04767,1.7501022,-0.23548855,5.330105,15.302327
275,2.7499999999999853,7.420128,-5.620145,1.7678471,0.39553526,4.5591927,14.626863
276,2.759999999999985,7.737342,-4.7668023,1.4627682,0.7124216,4.0295725,12.680952
277,2.769999999999985,7.117915,-4.3472657,1.3997767,0.3031419,4.189008,11.6586685
278,2.7799999999999847,6.469463,-4.127131,1.3808123,-0.63178736,4.665178,10.863017
279,2.7899999999999845,5.713809,-4.2951894,1.3489811,-2.0905335,5.604994,10.460915
280,2.7999999999999843,5.1135297,-4.358608,1.563018,-3.428481,6.5145726,10.564915
281,2.809999999999984,4.9784,-4.3786697,1.63601,-4.01369,6.8503957,10.704192
282,2.819999999999984,4.6182575,-4.7167387,2.5268548,-4.6190577,5.182886,11.441354
283,2.8299999999999836,4.7475333,-4.6571007,2.7759547,-3.7905715,3.4136677,11.607966
284,2.8399999999999834,5.3245792,-4.457516,2.6599114,-2.900999,1.6493362,11.554668
285,2.849999999999983,5.5271516,-4.318545,2.6017373,-2.250122,0.6433938,11.1263
286,2.859999999999983,5.488613,-3.6386268,1.9473088,-2.2930355,1.3397802,10.243446
287,2.869999999999983,5.317871,-3.5175226,1.7408942,-2.944065,2.2127066,9.827142
288,2.8799999999999826,4.5767303,-3.488923,1.6005812,-4.4550405,3.7391062,9.384418
289,2.8899999999999824,4.0646887,-3.5961242,1.8345582,-5.6666913,4.3907466,9.410837
290,2.899999999999982,4.036394,-3.706009,2.549539,-5.9125648,3.791488,9.718714
291,2.909999999999982,4.723751,-3.5117903,3.2665322,-4.81484,2.1421516,9.747119
292,2.9199999999999817,5.497699,-2.5183177,2.9267561,-2.404213,0.48243082,8.810051
293,2.9299999999999815,5.599534,-1.887976,2.1993356,-2.2942572,1.4802792,7.9797325
294,2.9399999999999813,5.8976,-0.79193646,1.3223943,-3.3110423,3.5921931,7.527845
295,2.949999999999981,5.8976,-0.79193646,1.3223943,-3.3110423,3.5921931,7.527845
296,2.959999999999981,6.358237,1.1000642,0.031343292,-8.242405,8.180402,5.6414933
297,2.9699999999999807,7.323232,0.9710933,1.70388,-10.96442,4.979621,4.6405907
298,2.9799999999999804,8.228102,0.53606784,2.8878515,-11.077277,2.8721356,4.697401
299,2.9899999999999802,10.975335,0.8708435,5.453062,-9.656252,-1.2353222,5.0400963
300,2.99999999999998,13.534754,2.8312628,7.5519648,-8.640689,0.18020524,3.830736
301,3.00999999999998,13.3040695,2.730952,8.320364,-7.14804,3.478725,0.4709771
302,3.0199999999999796,11.79642,1.1671413,9.113947,-5.3916492,5.810856,-2.1051943
303,3.0299999999999794,10.677026,-0.3179454,9.092237,-2.9130635,7.4485855,-4.534453
304,3.039999999999979,6.809361,-2.0183494,7.731366,2.6080892,8.331591,-6.9586716
305,3.049999999999979,4.788023,-2.432886,6.2425594,6.037639,7.2395167,-6.5128927
306,3.0599999999999787,4.387512,-2.5416117,5.49965,8.548296,5.173723,-6.029851
307,3.0699999999999785,4.0538344,-2.62558,4.7313128,9.673662,3.9127445,-5.9637246
308,3.0799999999999783,4.2568336,-3.0660934,4.0808477,11.884842,1.8241963,-6.3876653
309,3.089999999999978,4.3166547,-3.436115,3.6255164,12.167367,1.5522085,-6.585433
310,3.099999999999978,4.344949,-4.011027,2.73083,12.361317,0.93416566,-6.885062
311,3.1099999999999777,4.9343123,-4.1976233,2.0943296,11.266645,-0.12705997,-7.465079
312,3.1199999999999775,4.9343123,-4.1976233,2.0943296,10.582171,-0.30772337,-7.899251
313,3.1299999999999772,6.0941973,-4.7514358,1.8013855,9.199783,-0.36728272,-9.181152
314,3.139999999999977,6.0815134,-4.9421782,1.9205388,8.735067,-0.25900686,-9.868528
315,3.149999999999977,5.6188645,-5.280735,2.077987,8.551502,-0.22907446,-10.972056
316,3.1599999999999766,5.286223,-5.3044558,2.0188982,8.7653055,-0.64568454,-11.3640785
317,3.1699999999999764,5.210792,-5.280308,1.9388937,8.976207,-1.1991285,-11.721435
318,3.179999999999976,4.922909,-5.1973763,1.3239187,8.529969,-2.4451408,-12.114222
319,3.189999999999976,4.6966763,-5.026208,1.1786664,7.9578943,-3.254232,-12.103531
320,3.1999999999999758,4.446845,-4.7230196,1.2270228,7.5261655,-4.0474405,-11.81673
321,3.2099999999999755,4.6825905,-4.3768406,1.5755188,7.1321573,-5.318498,-11.28543
322,3.2199999999999753,5.005902,-4.0541997,1.7166246,6.986924,-6.323066,-10.684033
323,3.229999999999975,5.39501,-3.71979,1.0029854,6.4287457,-5.457165,-10.420751
324,3.239999999999975,5.2356105,-3.58277,0.27702835,5.3545394,-4.4107523,-10.560181
325,3.2499999999999747,4.844429,-3.5061193,0.012378771,4.827668,-4.3982296,-10.557431
326,3.2599999999999745,4.1703653,-3.3330603,-0.045185562,3.9955168,-5.3937874,-10.032545
327,3.2699999999999743,3.693752,-3.0774357,0.18421806,3.770413,-6.2135687,-9.620822
328,3.279999999999974,3.3387926,-2.7384524,0.7826676,3.549127,-7.411017,-8.766985
329,3.289999999999974,3.395076,-3.0126758,1.1769589,3.4620788,-7.2233286,-8.592125
330,3.2999999999999736,3.1914058,-3.953828,0.93798155,3.4538321,-6.0045,-8.969182
331,3.3099999999999734,2.3986764,-5.125543,-0.56966734,2.4071145,-4.5469756,-9.31203
332,3.319999999999973,1.2650738,-5.9287605,-1.589605,0.29352075,-3.3948836,-9.475741
333,3.329999999999973,-0.2534904,-6.9985795,0.21964696,-5.4191384,-0.99464136,-10.207864
334,3.3399999999999728,-3.1366463,-8.889726,3.4897156,-6.9930325,1.971873,-11.399662
335,3.3499999999999726,-5.7014914,-9.122788,4.1228013,-4.82553,1.9747746,-10.452516
336,3.3599999999999723,-6.860156,-8.711789,3.9770002,-1.5541939,0.39019018,-7.4721036
337,3.369999999999972,-5.3731794,-7.7983212,2.7029626,2.4333818,-0.6721045,0.302531
338,3.379999999999972,-4.332997,-7.0941334,1.7822381,2.4344506,-0.25259277,0.83658
339,3.3899999999999717,-3.4462984,-6.569042,1.6608895,1.0845913,2.8083003,3.7015378
340,3.3999999999999715,-2.6974745,-6.3473825,1.8586451,0.48288897,4.2184825,5.6321774
341,3.4099999999999713,-2.3421488,-6.2809763,1.9715176,0.43951756,4.856837,7.3920803
342,3.419999999999971,0.104945146,-6.2167044,1.9626147,0.70157874,5.40799,9.81019
343,3.429999999999971,1.0948809,-6.14609,1.8717556,0.7287622,5.681658,10.665554
344,3.4399999999999706,1.9846889,-6.054134,1.7893727,0.5728389,5.990908,11.5539055
345,3.4499999999999704,3.5695984,-5.7051497,1.9510283,0.33322698,6.017939,11.8532295
346,3.45999999999997,4.099263,-5.499833,2.1887252,0.27748555,6.088494,11.870944
347,3.46999999999997,4.800402,-5.061027,2.2498262,0.28191432,6.3197064,11.454029
348,3.47999999999997,4.654723,-4.8874803,1.9426134,-0.35262197,7.059464,10.911122
349,3.4899999999999696,4.357023,-4.7909503,1.7727864,-1.4892895,8.091979,10.795821
350,3.4999999999999694,3.7294247,-4.7872915,1.7025993,-3.3629658,9.392817,11.093007
351,3.509999999999969,3.5050826,-5.204328,2.0144467,-5.496107,10.042319,11.991896
352,3.519999999999969,3.5455728,-5.339946,2.1909816,-6.149733,9.473757,12.428206
353,3.5299999999999687,3.9535234,-5.8818674,2.9146214,-6.28168,6.1714187,13.320527
354,3.5399999999999685,4.431539,-6.114808,3.2200658,-5.0399437,1.8594738,14.023787
355,3.5499999999999683,5.7482014,-6.3043923,3.568379,-4.2039747,0.29153544,14.096785
356,3.559999999999968,6.4100695,-5.841987,3.495265,-3.1236594,0.30466905,13.473396
357,3.569999999999968,6.4177527,-5.470746,3.2831795,-3.043636,0.7319693,13.264175
358,3.5799999999999677,5.509773,-4.707165,2.1214652,-5.0546045,6.7482285,11.198381
359,3.5899999999999674,5.509773,-4.707165,2.1214652,-7.9223113,9.647548,10.549337
360,3.5999999999999672,3.608381,-5.4431224,2.1119523,-7.9223113,9.647548,10.549337
361,3.609999999999967,4.476359,-5.6125226,4.261041,-9.385944,3.536757,11.394774
362,3.619999999999967,5.007914,-5.4512935,4.730764,-8.227439,0.977079,11.433413
363,3.6299999999999666,6.831984,-4.130912,4.0227957,-2.3322835,-4.3131666,10.102642
364,3.6399999999999664,6.5519066,-3.3985522,2.5705159,-1.9773707,0.3387248,8.071974
365,3.649999999999966,5.535079,-2.933586,0.7607761,-3.0980031,2.864958,7.6507816
366,3.659999999999966,5.235915,-2.950843,0.2180615,-7.5367026,8.779814,7.5507526
367,3.6699999999999657,6.520746,-3.3683674,0.6707708,-13.574494,11.046735,7.0764155
368,3.6799999999999655,7.057485,-3.0245059,1.5407606,-15.372577,9.561416,5.8783565
369,3.6899999999999653,7.5549526,-3.3767824,3.1601844,-17.100866,5.262604,4.365701
370,3.699999999999965,8.324144,-3.486667,5.6560006,-16.924786,1.724778,4.0364447
371,3.709999999999965,8.324144,-3.486667,5.6560006,-15.862491,-0.029626964,4.1885505
372,3.7199999999999647,9.732641,-1.8255334,9.477992,-13.828004,-0.36758816,4.6480737
373,3.7299999999999645,12.145039,-0.2119026,11.771724,-6.685462,5.141195,2.5357015
374,3.7399999999999642,11.59586,-0.36258212,10.266636,-2.9669726,5.4809885,0.31535918
375,3.749999999999964,8.917472,-1.4849646,9.641539,1.3884968,4.864167,-3.3712125
376,3.759999999999964,8.917472,-1.4849646,9.641539,2.9987376,5.1692944,-4.490318
377,3.7699999999999636,4.8667474,-2.6599724,5.3616543,7.943081,6.77587,-4.7594037
378,3.7799999999999634,4.835587,-2.7037551,4.9886446,8.9401655,6.533051,-4.021784
379,3.789999999999963,4.7288737,-2.7958949,3.4015398,9.2197895,5.8841596,-4.071111
380,3.799999999999963,4.5121536,-2.9851742,3.0006018,9.240711,5.5263453,-4.24811
381,3.8099999999999627,4.5027018,-3.0918877,2.888766,9.230174,5.4884715,-4.273766
382,3.8199999999999625,4.6735654,-3.357269,2.7743692,9.19566,4.893947,-4.9076915
383,3.8299999999999623,5.331104,-4.593073,2.9252927,10.07668,3.1074715,-6.585433
384,3.839999999999962,5.348361,-4.901262,2.988223,10.269867,2.8531988,-6.8277936
385,3.849999999999962,5.384217,-6.0840135,2.7838209,11.017718,1.9680551,-7.6367316
386,3.8599999999999617,5.2850647,-6.6934395,2.473071,12.391249,1.063211,-8.815854
387,3.8699999999999615,5.362447,-6.801982,2.3548326,12.63361,0.8752172,-8.944442
388,3.8799999999999613,5.8344865,-6.8829627,1.7382113,13.181251,-0.11881329,-9.956035
389,3.889999999999961,5.8914413,-6.8278375,1.3667871,13.130854,-1.1971432,-10.825295
390,3.899999999999961,5.64972,-6.7245994,1.1993992,12.926367,-2.5668557,-11.751978
391,3.9099999999999606,5.2915893,-6.5700173,0.9945702,12.10964,-4.287205,-12.690878
392,3.9199999999999604,4.8946757,-6.2123137,0.8453542,10.787117,-5.357746,-12.834279
393,3.92999999999996,4.817842,-6.0594997,0.7852288,10.286055,-5.4583864,-12.701262
394,3.93999999999996,4.642283,-5.569776,0.6429643,8.83189,-5.223509,-11.93814
395,3.9499999999999598,4.516666,-5.131214,0.56661844,8.268061,-5.211597,-11.47205
396,3.9599999999999596,4.574962,-4.511117,0.509359,7.6419244,-6.44585,-10.680521
397,3.9699999999999593,4.449833,-4.0900555,0.29044378,7.080997,-8.029823,-10.507493
398,3.979999999999959,4.282018,-3.6848493,0.21312219,6.2332687,-8.98598,-10.515129
399,3.989999999999959,3.9759636,-3.6060638,0.45374596,4.849812,-9.518502,-10.569344
400,3.9999999999999587,3.7253394,-4.1326804,0.9815816,3.7398698,-8.839525,-10.591334
401,4.009999999999959,3.2706785,-5.051575,0.87767315,2.8362474,-6.194479,-10.777954
402,4.019999999999959,1.8626697,-5.637646,-0.27684543,2.0447187,-5.4608297,-10.662348
403,4.0299999999999585,-0.19452354,-6.068525,-1.6293634,-0.7305948,-4.347986,-9.906402
404,4.039999999999958,-1.4526457,-6.8721695,-1.4839281,-4.7116036,-3.145956,-8.788977
405,4.049999999999958,-2.6533256,-7.3782353,0.41807315,-8.768513,-0.6772968,-7.6613193
406,4.059999999999958,-4.0403576,-8.06419,3.688813,-8.968571,0.7849618,-6.8109946
407,4.069999999999958,-5.1307263,-8.134133,4.9165063,-6.612311,1.2082914,-5.602703
408,4.079999999999957,-5.1307263,-8.134133,4.9165063,-6.612311,1.2082914,-5.602703
409,4.089999999999957,-6.8991218,-8.2019415,3.0263963,-0.5319109,0.51053065,-0.2678644
410,4.099999999999957,-6.357871,-8.139621,3.0198712,-0.18371773,1.016938,2.1655173
411,4.109999999999957,-5.4792833,-7.9671717,3.1396344,0.42332962,2.0683897,5.4583864
412,4.119999999999957,-3.1881738,-7.5599537,2.9231584,1.8017471,2.9967523,8.963225
413,4.129999999999956,-1.2651958,-7.3988466,2.5194154,3.0605876,3.1613803,11.527332
414,4.139999999999956,1.2085462,-7.188773,2.0411558,3.6851974,3.1597004,12.600623
415,4.149999999999956,4.6790533,-6.150664,1.0212791,4.5071163,3.3342552,12.371396
416,4.159999999999956,5.30037,-5.280674,0.6147919,4.3482914,3.5989125,11.342852
417,4.1699999999999555,5.551666,-4.559717,0.35160586,3.7963748,4.0039163,10.305144
418,4.179999999999955,5.406474,-3.9814517,0.24220926,2.2627976,4.8461466,8.777523
419,4.189999999999955,4.4045253,-3.5722814,0.42154896,1.2188289,5.5590262,8.319068
420,4.199999999999955,4.078653,-3.5260594,0.5741799,-1.153619,7.2906766,8.292038
421,4.209999999999955,3.5989294,-3.4522743,1.0840267,-2.303573,7.8867283,8.492707
422,4.2199999999999545,3.4861789,-3.4625194,1.3027589,-4.092339,8.168032,9.029657
423,4.229999999999954,3.4201384,-3.5951486,2.2964144,-4.7224464,7.326412,9.582032
424,4.239999999999954,3.5395968,-3.6986914,2.7525387,-4.333936,6.1818037,9.784992
425,4.249999999999954,3.6571646,-3.8885195,2.9056573,-3.7679696,5.169905,9.831876
426,4.259999999999954,3.7491212,-3.9938915,2.690584,-2.538145,3.3773212,9.899529
427,4.269999999999953,3.8412607,-4.0676155,2.3361728,-2.4156666,3.5590537,10.07943
428,4.279999999999953,3.8560786,-4.046943,2.2059214,-2.981786,4.4419065,10.217791
429,4.289999999999953,3.7219245,-4.079994,1.89072,-4.2433753,5.6118665,10.316445
430,4.299999999999953,3.6128328,-4.1038976,1.9410888,-5.0159674,5.8731637,10.350806
431,4.3099999999999525,3.424468,-4.1450586,2.3942862,-5.81223,4.6465464,10.496345
432,4.319999999999952,3.6227725,-4.261346,2.9576726,-5.6031613,3.2652276,10.695487
433,4.329999999999952,3.9464495,-4.2956777,3.0281034,-4.751768,2.051438,10.81598
434,4.339999999999952,4.273359,-4.252138,2.6185672,-4.2739186,1.7736472,10.727099
435,4.349999999999952,4.5727057,-4.2958603,2.2434845,-4.6873217,2.466521,10.557736
436,4.3599999999999515,4.744057,-4.3521442,1.8545595,-6.1990604,4.2395577,10.128604
437,4.369999999999951,4.8668084,-4.377755,1.8317531,-9.058826,5.090951,9.557751
438,4.379999999999951,5.500382,-4.385195,2.388859,-9.058826,5.090951,9.557751
439,4.389999999999951,6.5902014,-4.4242215,2.8671186,-10.742523,4.278042,8.64527
440,4.399999999999951,7.1048045,-4.232137,2.9571238,-12.013886,4.6053133,7.5690784
441,4.40999999999995,6.8680835,-4.379707,2.9838326,-14.147639,6.1533985,6.356511
442,4.41999999999995,5.2998214,-5.309212,4.105727,-15.58531,7.1394877,5.8148265
443,4.42999999999995,5.16396,-5.6236815,4.628197,-20.040962,7.314195,6.713409
444,4.43999999999995,6.244389,-6.683683,8.558853,-17.340326,2.7273605,7.549378
445,4.4499999999999496,9.374755,-4.8574786,14.141618,-7.2827353,-2.9642236,5.292231
446,4.459999999999949,10.30243,-2.4282515,14.995814,3.2650747,-5.3213997,2.412765
447,4.469999999999949,9.682881,-0.66412413,10.319932,6.8429127,-4.5281916,0.38896844
448,4.479999999999949,9.118032,-0.56869173,7.3346353,7.042818,-0.7538077,-1.02717
449,4.489999999999949,8.215906,-0.11726294,6.4073253,5.666997,4.706259,-2.2536347
450,4.4999999999999485,5.5784354,-1.4238636,5.2585998,5.3006306,10.779939,-3.9128973
451,4.509999999999948,3.673873,-2.227569,4.224088,6.330091,10.757337,-3.7581956
452,4.519999999999948,3.1978695,-2.622226,3.9444377,8.163298,7.580532,-3.0656273
453,4.529999999999948,3.3673308,-3.2820208,3.960109,9.974055,4.502993,-2.8422034
454,4.539999999999948,3.6597865,-3.7211926,3.8280895,11.381641,2.5282185,-2.9940033
455,4.549999999999947,3.6597865,-3.7211926,3.8280895,11.381641,2.5282185,-2.9940033
456,4.559999999999947,3.6597865,-3.7211926,3.8280895,11.381641,2.5282185,-2.9940033
457,4.569999999999947,4.993889,-5.858513,2.2898288,14.235298,-1.8339702,-6.5803933
458,4.579999999999947,5.389095,-6.13609,1.9199902,13.727058,-1.1798862,-7.666664
459,4.589999999999947,5.517395,-6.137736,1.4632561,13.115276,-0.36102137,-8.434827
460,4.599999999999946,5.705638,-6.067244,1.2142782,11.494651,0.98547834,-9.549046
461,4.609999999999946,6.009863,-6.0310225,1.4308152,10.561402,0.8379544,-10.42915
462,4.619999999999946,5.9615674,-6.097612,1.8726094,10.576368,-0.35277468,-11.648742
463,4.629999999999946,5.965714,-6.249877,1.9427962,10.943345,-2.005776,-12.507008
464,4.6399999999999455,5.889185,-6.3123198,1.7780915,11.253054,-3.6567922,-13.464692
465,4.649999999999945,5.816132,-6.2388396,1.2861725,10.985648,-4.6405907,-13.996908
466,4.659999999999945,5.6360607,-5.844426,0.77175236,9.84501,-5.177083,-14.509577
467,4.669999999999945,5.5862403,-5.762165,0.6805885,8.586017,-4.9996266,-14.579521
468,4.679999999999945,5.3110414,-5.098834,0.16482669,6.7740374,-4.4368668,-14.238353
469,4.689999999999944,5.2970166,-4.48642,0.4300251,5.259397,-4.4538183,-13.474771
470,4.699999999999944,5.2970166,-4.48642,0.4300251,5.0626984,-5.1088185,-13.138032
471,4.709999999999944,5.2278657,-3.9745612,0.90352833,5.4496818,-6.782895,-12.814273
472,4.719999999999944,4.9224215,-3.9563897,0.6278415,5.3151383,-7.5609846,-12.67133
473,4.729999999999944,4.533862,-4.1203623,0.5367996,4.4732137,-7.209126,-12.640482
474,4.739999999999943,3.6110036,-4.4823956,0.9715811,3.1097622,-5.9444823,-12.821604
475,4.749999999999943,2.5252693,-5.425926,1.2129976,2.7635543,-5.158299,-12.885744
476,4.759999999999943,1.1654338,-7.0663877,0.80535185,2.1001546,-4.693125,-12.539384
477,4.769999999999943,-1.5560664,-8.507386,0.15494807,-0.4905248,-4.731304,-10.845302
478,4.7799999999999425,-3.064874,-8.205113,1.826631,-2.9770517,-3.256828,-8.65031
479,4.789999999999942,-3.50307,-8.883811,3.9167528,-3.435048,-0.5164866,-5.9852576
480,4.799999999999942,-4.7610097,-8.6206255,4.1957326,-2.6943738,0.71669763,-4.830875
481,4.809999999999942,-5.289821,-8.722948,4.3037877,-0.8536842,1.2829697,-2.170557
482,4.819999999999942,-5.7772884,-8.679287,4.129753,1.0873401,1.185384,0.14569137
483,4.8299999999999415,-5.711431,-8.418174,3.5180712,2.035403,1.4992161,1.8264871
484,4.839999999999941,-5.3818994,-8.306521,3.349403,2.271808,1.6688838,2.449875
485,4.849999999999941,-4.5889263,-8.124133,2.9496844,3.4202344,3.6415205,7.2483745
486,4.859999999999941,-0.0027440626,-7.2545695,1.343188,3.183677,6.147595,12.949733
487,4.869999999999941,1.6937574,-7.080291,1.0632328,2.766456,6.5457263,14.017067
488,4.87999999999994,5.083833,-6.391958,0.8513911,2.2692118,6.96478,14.696043
489,4.88999999999994,5.430012,-6.257865,0.8044982,2.2342396,7.0034175,14.562417
490,4.89999999999994,6.4888544,-4.949252,0.55326396,2.1714733,5.8939333,12.514949
491,4.90999999999994,6.462816,-4.5152025,0.45959997,2.0635028,5.501147,11.599567
492,4.9199999999999395,5.936078,-4.0061483,0.3340439,1.1583532,5.1379876,10.195799
493,4.929999999999939,5.4792223,-3.7660735,0.39959648,-0.1366811,5.7060924,9.49529
494,4.939999999999939,4.1341434,-3.6117961,0.4856381,-1.9226984,6.939582,9.348071
495,4.949999999999939,3.22031,-3.6978378,0.9229197,-3.8472292,8.141612,9.855852
496,4.959999999999939,3.1072545,-3.7478406,1.0485977,-3.8472292,8.141612,9.855852
497,4.9699999999999385,2.7615635,-4.4179406,1.8554741,-5.4254,8.462622,10.7730665
498,4.979999999999938,2.8960226,-4.992852,2.55832,-5.9202003,6.416834,11.961352
499,4.989999999999938,3.2247005,-5.230183,2.830592,-5.5130587,5.176014,12.239449
500,4.999999999999938,4.0349307,-5.1819487,3.0920098,-4.815298,3.7853792,12.260524
501,5.009999999999938,4.1617064,-4.864979,2.7477822,-2.879619,1.7078265,11.399203
502,5.019999999999937,4.104264,-4.6692357,2.3700774,-2.4898868,1.8280143,10.989008
503,5.029999999999937,3.9327295,-4.4338565,1.7836406,-2.6757424,2.3073907,10.728931
504,5.039999999999937,3.7071066,-4.256468,1.472159,-2.4898868,1.8280143,10.989008
505,5.049999999999937,3.3054976,-4.384768,0.9955459,-5.4771705,4.7839913,10.413572
506,5.0599999999999365,3.694423,-4.514471,1.2783062,-7.884743,4.3217187,10.885924
507,5.069999999999936,3.8109539,-4.507641,1.37008,-8.606481,3.6995525,10.894935
508,5.079999999999936,4.449223,-4.3567176,1.7513216,-9.246667,2.482251,10.119136
509,5.089999999999936,5.4928203,-2.86224,2.090366,-9.270643,2.567314,9.287901
510,5.099999999999936,5.482637,-2.2923899,1.8449248,-9.828822,4.3090434,7.590153
511,5.1099999999999355,5.638012,-2.1871397,1.0971981,-11.494957,6.2410574,6.3569694
512,5.119999999999935,6.134748,-3.1575623,0.585339,-15.344782,8.517753,4.162741
513,5.129999999999935,6.2950015,-4.5352035,1.2251934,-19.502941,9.5863085,1.0102184
514,5.139999999999935,3.149696,-5.9057713,5.4608674,-21.29293,8.79142,-1.2391402
515,5.149999999999935,1.5892391,-5.4759293,8.2454195,-19.94811,6.7902255,-0.8724683
516,5.159999999999934,2.8438854,-5.0335865,11.205166,-13.480421,0.38973203,2.058616
517,5.169999999999934,7.2686563,-3.7010086,11.253584,-10.405173,-2.4744625,3.211624
518,5.179999999999934,9.657698,-2.5058777,10.66733,-1.5486962,-4.771774,3.3049338
519,5.189999999999934,10.178642,-3.1052423,7.177126,0.46685377,-0.7182248,0.6414085
520,5.199999999999934,7.984734,-3.3397682,6.4345217,-0.9753991,5.4761014,-3.780187
521,5.209999999999933,4.735642,-2.982613,7.535805,-0.90576047,7.0727506,-3.9723039
522,5.219999999999933,2.9435863,-2.7148535,7.8449087,1.9361374,7.3320627,-2.6427557
523,5.229999999999933,3.0571907,-2.5202081,6.786188,3.4225252,7.0409856,-1.9201022
524,5.239999999999933,3.23153,-2.5078902,6.500318,7.5533485,5.4383807,-0.6995934
525,5.2499999999999325,4.0768843,-2.663448,4.1486564,10.554377,2.8315132,-1.6461291
526,5.259999999999932,4.017795,-2.7857113,3.6895447,11.133935,2.1497874,-2.03861
527,5.269999999999932,4.1179233,-2.9991384,3.351598,12.268006,0.8371908,-2.9900327
528,5.279999999999932,4.6325874,-3.7187533,2.5966148,12.707982,0.29092458,-4.4017425
529,5.289999999999932,4.9744368,-4.576182,2.2061043,12.553739,0.4813618,-5.2818465
530,5.299999999999931,4.962546,-5.268844,1.9021232,11.890492,1.5300647,-7.168198
531,5.309999999999931,4.950045,-5.8735743,1.7993124,11.474187,1.9619465,-7.975151
532,5.319999999999931,4.99456,-6.36653,1.9315761,11.520919,1.7675385,-8.38382
533,5.329999999999931,4.8255253,-6.589104,1.8585231,12.069934,0.5016731,-9.05287
534,5.339999999999931,4.9516306,-6.6077023,1.7328451,12.477992,-1.1039863,-9.5012455
535,5.34999999999993,5.1528616,-6.5861163,1.5861291,12.675148,-2.3938282,-10.078361
536,5.35999999999993,5.3706183,-6.560809,1.4289858,12.558626,-3.66061,-11.123398
537,5.36999999999993,5.3465924,-6.538369,1.0327432,12.200506,-4.087452,-11.740524
538,5.37999999999993,5.1040783,-6.4280577,0.7935829,11.219914,-4.3046145,-12.384377
539,5.3899999999999295,4.79778,-6.2309732,0.54783684,9.500482,-3.9564214,-12.289082
540,5.399999999999929,4.6992373,-5.8129,0.55051994,9.136711,-4.0610323,-12.156371
541,5.409999999999929,4.67637,-5.4572086,0.87627065,8.857698,-6.3416977,-12.157288
542,5.419999999999929,4.5706935,-5.379216,0.9210293,8.898016,-6.7772446,-12.19562
543,5.429999999999929,4.4394054,-5.1539593,0.9004184,9.061117,-9.091966,-12.348947
544,5.4399999999999284,3.8430293,-4.568376,0.4730154,8.966127,-10.352333,-12.466691
545,5.449999999999928,3.4941673,-4.1168866,0.1413497,7.0802336,-11.75488,-11.973722
546,5.459999999999928,3.421541,-3.541426,0.08921252,3.8348594,-9.066004,-10.628902
547,5.469999999999928,3.5767941,-3.5602078,0.1753151,1.8445076,-5.839566,-10.084621
548,5.479999999999928,3.8266258,-4.0817623,0.2651374,1.5005904,-5.2387805,-10.0856905
549,5.489999999999927,3.6646652,-4.4545283,0.15305771,0.8240572,-4.149455,-10.199617
550,5.499999999999927,0.64619625,-5.5744715,-0.7244935,-4.959462,-2.4981334,-9.572412
551,5.509999999999927,-0.9474943,-7.4014077,0.5494833,-5.604383,-2.5459337,-9.409921
552,5.519999999999927,-2.1489668,-8.047115,2.3703823,-5.604383,-2.5459337,-9.409921
553,5.5299999999999265,-3.0888388,-8.2905445,4.3624496,-8.1578,-0.45830166,-7.454083
554,5.539999999999926,-3.5519757,-8.26908,5.2502456,-5.0309334,-0.006414085,-5.86171
555,5.549999999999926,-4.8686986,-7.613981,3.8830926,-2.1609359,0.087659165,-4.0921865
556,5.559999999999926,-5.0107193,-7.4938517,3.4791052,-1.0273226,0.5902485,-1.927738
557,5.569999999999926,-5.1863394,-7.085779,3.1005468,-0.982424,1.8837557,0.81122905
558,5.5799999999999255,-5.1863394,-7.085779,3.1005468,-0.982424,1.8837557,0.81122905
559,5.589999999999925,-4.4820905,-6.941198,3.3737943,-0.09819659,3.5602753,4.6964846
560,5.599999999999925,-2.637776,-6.7181973,2.8052857,1.1215485,4.57645,9.461387
561,5.609999999999925,-0.41551206,-6.4255576,2.4204462,1.2765557,4.6395216,10.94243
562,5.619999999999925,3.1340854,-6.2886596,2.7233295,1.3416128,4.517043,11.908512
563,5.629999999999924,4.582463,-5.947115,2.7882116,2.8744264,3.7116172,12.879483
564,5.639999999999924,6.1756043,-5.1890225,2.2603147,3.4130569,3.7065775,12.136671
565,5.649999999999924,6.644534,-4.458614,1.6200945,3.1740558,4.6318855,10.104169
566,5.659999999999924,6.4265947,-3.8219302,1.047683,2.680935,5.2575645,9.409768
567,5.6699999999999235,5.256526,-3.4123943,0.47685713,0.056199603,7.9325433,7.950869
568,5.679999999999923,3.846139,-3.4867887,0.50118774,-3.4432948,10.460151,7.934223
569,5.689999999999923,3.4519696,-3.6369805,0.62381685,-4.6149344,10.989008,8.197506
570,5.699999999999923,2.5305135,-4.4328194,1.4678905,-7.177361,11.604301,9.223607
571,5.709999999999923,2.748392,-5.142434,2.245375,-9.20971,10.08844,11.211057
572,5.7199999999999225,3.032738,-5.4923935,2.731562,-9.309434,8.471632,11.927908
573,5.729999999999922,3.1363416,-5.602461,2.8708382,-9.233839,7.8755803,12.147361
574,5.739999999999922,3.1363416,-5.602461,2.8708382,-9.233839,7.8755803,12.147361
575,5.749999999999922,4.1525593,-6.2568893,3.374953,-7.738899,3.3918293,13.529444
576,5.759999999999922,4.1525593,-6.2568893,3.374953,-7.738899,3.3918293,13.529444
577,5.769999999999921,5.9676046,-5.468368,2.4682536,-5.5067973,1.201572,13.6394
578,5.779999999999921,5.189937,-5.4476347,1.9334055,-8.941235,6.670801,11.667221
579,5.789999999999921,4.3162274,-5.947603,2.1052449,-10.006278,6.677215,11.528401
580,5.799999999999921,4.6466126,-6.4748898,3.2778132,-10.375088,3.3518176,11.917829
581,5.809999999999921,5.834243,-6.2569504,4.35812,-8.874345,-1.2299771,12.247085
582,5.81999999999992,7.4204326,-5.345617,4.4919696,-3.4965928,-6.2593837,12.10964
583,5.82999999999992,7.9713187,-4.5651445,3.9649875,-2.1766655,-5.1228685,11.56765
584,5.83999999999992,8.472384,-3.3333652,2.0397532,-2.3275492,-0.15424347,10.344851
585,5.84999999999992,8.865639,-3.268971,1.0170716,-3.3198998,2.1992676,9.805304
586,5.8599999999999195,8.815942,-3.4479449,0.33264136,-11.75488,8.238586,6.2883997
587,5.869999999999919,7.8125896,-3.5147173,2.5255742,-11.75488,8.238586,6.2883997
588,5.879999999999919,8.158342,-3.7052772,3.8125398,-15.684881,5.9319596,5.1708217
589,5.889999999999919,8.291642,-3.5331328,5.36824,-14.915344,1.858863,5.2242723
590,5.899999999999919,9.4673815,-1.9627974,8.977536,-13.421779,1.0053315,5.241987
591,5.909999999999918,9.607817,-0.620463,10.692392,-9.115484,1.2768611,4.589125
592,5.919999999999918,10.454939,0.58094853,11.506281,-3.5046866,0.5271767,3.6219728
593,5.929999999999918,11.462315,1.2594028,10.814106,1.5474744,0.7823657,-0.29749137
594,5.939999999999918,10.429084,1.1967162,9.551594,2.528066,1.6865989,-1.9857702
595,5.949999999999918,6.264939,0.0046344167,7.8491774,3.9897137,3.2198708,-3.8276815
596,5.959999999999917,5.602217,-0.38666892,6.8751574,7.4017015,5.386915,-4.82553
597,5.969999999999917,5.228232,-1.2812942,4.3547053,9.313404,5.40967,-4.986035
598,5.979999999999917,5.236159,-1.4252661,4.1318874,9.780258,4.725043,-6.0031257
599,5.989999999999917,5.2411594,-2.3418438,3.4288585,9.780258,4.725043,-6.0031257
600,5.9999999999999165,5.2411594,-2.3418438,3.4288585,9.780258,4.725043,-6.0031257
601,6.009999999999916,5.0221834,-4.6908226,2.8229697,10.443963,3.572798,-7.1648383
602,6.019999999999916,5.3374457,-5.097919,2.7814429,10.530859,3.428023,-7.1796517
603,6.029999999999916,5.730822,-5.590509,2.678388,11.085525,2.7800477,-7.727751
604,6.039999999999916,5.853939,-5.8586345,2.5635033,11.279779,2.535549,-7.962781
605,6.0499999999999154,6.124138,-6.1835923,2.0970736,11.977999,1.6780468,-8.907943
606,6.059999999999915,6.3201246,-6.3707986,1.8601085,12.267091,0.70173144,-9.928392
607,6.069999999999915,6.42568,-6.566237,1.5053928,12.238686,-0.72509706,-11.362704
608,6.079999999999915,6.09377,-6.4207406,1.3131254,11.730904,-2.4491115,-12.7508955
609,6.089999999999915,5.9491887,-6.1686525,1.337822,10.845607,-3.7669005,-13.595264
610,6.099999999999914,6.22329,-5.9500422,1.4875258,10.1072235,-4.752379,-14.033865
611,6.109999999999914,6.7318563,-5.666672,1.9427962,9.570579,-6.052911,-14.606857
612,6.119999999999914,6.988274,-5.6010585,2.1506743,9.541104,-6.5063257,-14.82295
613,6.129999999999914,6.798384,-5.5453844,1.9448696,10.0258255,-8.017912,-15.503607
614,6.1399999999999135,6.635753,-5.488247,1.6989406,10.17228,-9.28897,-15.639372
615,6.149999999999913,5.848268,-5.3478727,0.7979734,9.754296,-11.076972,-15.349669
616,6.159999999999913,5.3884854,-5.1123104,0.52198166,8.274017,-11.786492,-14.333343
617,6.169999999999913,4.191586,-3.8234549,-0.12811723,6.9644747,-11.360108,-13.420862
618,6.179999999999913,3.3597693,-3.5608175,-0.5027732,4.3371434,-9.5863085,-12.040307
619,6.1899999999999125,2.558564,-4.347083,-0.09274931,0.4083634,-5.4357843,-10.727862
620,6.199999999999912,1.990299,-5.1029196,-0.043356188,-0.37140608,-4.2916336,-10.437855
621,6.209999999999912,-0.55045897,-6.674902,-0.25806385,-4.830875,-2.6025913,-8.1863575
622,6.219999999999912,-0.6005838,-7.0332766,2.6214945,-7.8838267,-1.0725267,-7.1953816
623,6.229999999999912,-1.1243339,-8.000649,4.66948,-6.949814,-0.2284636,-7.3629117
624,6.239999999999911,-3.6300898,-7.917352,4.899188,-3.9144244,-0.06688975,-6.9149947
625,6.249999999999911,-4.958765,-7.8691173,4.5714254,-2.2295055,-0.8022188,-5.4357843
626,6.259999999999911,-4.749728,-7.6440434,3.9962087,0.46502116,-0.4176791,-0.6872234
627,6.269999999999911,-4.271042,-7.390919,3.4458108,0.31963524,2.5738807,2.846174
628,6.2799999999999105,-2.92761,-7.0132146,3.0111513,0.11881329,3.6334264,3.748269
629,6.28999999999991,-1.6075329,-6.570627,2.4828887,-0.3390302,5.765041,5.9008055
630,6.29999999999991,-0.3293485,-6.114198,2.543685,-0.17531833,5.772218,7.4298015
631,6.30999999999991,0.8862102,-5.7533846,2.5344162,0.43249258,5.483432,8.404895
632,6.31999999999991,2.4475818,-5.2375007,2.2113485,1.2754866,5.362633,8.936806
633,6.3299999999999095,3.4105036,-4.6592965,1.6359491,1.640784,5.199685,8.674287
634,6.339999999999909,3.6921668,-4.092373,1.3057469,1.5671748,5.125923,8.582352
635,6.349999999999909,3.5716717,-3.7710738,1.2713547,0.88117313,4.9817586,8.168796
636,6.359999999999909,3.3439755,-3.6803365,1.2714156,0.05009095,5.5293994,8.167421
637,6.369999999999909,2.9146214,-3.8459563,1.2174491,-2.847701,8.257066,8.69582
638,6.379999999999908,2.6610699,-4.1325583,1.2754403,-4.4351873,9.595471,9.2197895
639,6.389999999999908,2.2239103,-4.472944,1.5476513,-5.9374576,10.416169,10.090119
640,6.399999999999908,2.4594727,-4.9262023,2.2983048,-7.0122747,9.45482,11.637441
641,6.409999999999908,2.8342507,-5.2095113,2.575943,-7.0104423,9.047525,11.863003
642,6.419999999999908,3.386844,-5.5279446,2.8319945,-6.265187,5.493664,13.065338
643,6.429999999999907,5.1131034,-5.667221,3.4796543,-4.1369324,0.4280638,13.762641
644,6.439999999999907,5.4891615,-5.5984974,3.3651352,-3.0863967,-0.6093381,13.528832
645,6.449999999999907,5.702162,-5.1998158,2.8268113,-2.5008824,0.0065668016,13.155594
646,6.459999999999907,5.702162,-5.1998158,2.8268113,-4.406629,4.756044,12.3226795
647,6.4699999999999065,5.702162,-5.1998158,2.8268113,-5.735719,6.729444,12.055426
648,6.479999999999906,4.426234,-4.964802,1.0845754,-8.057466,9.211695,11.793212
649,6.489999999999906,3.899313,-5.9313216,2.2125072,-12.734708,8.791267,11.569788
650,6.499999999999906,4.1147523,-6.005533,3.2511044,-12.714396,6.174015,11.30177
651,6.509999999999906,4.3049464,-5.8969293,3.9178507,-10.722059,1.518611,11.041084
652,6.519999999999905,5.365313,-5.233964,5.084016,-6.0706263,-3.4385605,10.79353
653,6.529999999999905,6.552456,-3.516059,1.943772,-1.8889481,-2.7087293,9.506591
654,6.539999999999905,6.613861,-3.193662,-0.03561183,-4.652655,1.6377298,8.8755665
655,6.549999999999905,6.7833223,-3.7338154,-0.386425,-11.033448,7.934834,8.136572
656,6.559999999999905,6.7207584,-5.803936,2.01652,-18.669569,10.154107,5.60927
657,6.569999999999904,6.6295943,-5.94553,2.6980844,-19.285933,9.645562,5.2697816
658,6.579999999999904,6.9207697,-4.978339,9.827768,-16.119207,1.4798211,4.223522
659,6.589999999999904,7.4267135,-3.2006745,10.739285,-10.797196,-1.7486018,4.5384235
660,6.599999999999904,8.233346,-1.2351941,9.812402,-5.007873,-2.6717718,5.102252
661,6.6099999999999035,9.294322,-0.18903543,9.098702,-3.1658092,-2.0141754,5.3559136
662,6.619999999999903,10.874659,0.81864536,8.587575,-0.6632469,-0.9286679,5.6033144
663,6.629999999999903,12.881788,1.568567,8.047787,1.1830933,-0.19608775,3.7866008
664,6.639999999999903,13.125095,2.248241,7.3796377,1.9608774,2.144748,-2.5821273
665,6.649999999999903,9.996681,1.0675013,6.6113615,2.1406245,4.77941,-6.7793827
666,6.659999999999902,6.420253,-0.50716376,5.746494,2.674979,7.164533,-8.887631
667,6.669999999999902,3.2983632,-1.568933,4.5372767,3.7937787,9.069516,-8.095644
668,6.679999999999902,2.5478926,-1.5948491,3.8415046,4.838969,8.661153,-6.591083
669,6.689999999999902,2.8548617,-1.844193,3.7594268,6.947829,5.7813816,-5.2386274
670,6.699999999999902,3.3369021,-2.3793461,3.7357666,8.674439,3.2096386,-5.1303515
671,6.709999999999901,3.828943,-3.0206032,3.4508111,10.598054,0.25121832,-5.698151
672,6.719999999999901,4.4103184,-3.8032706,3.0983515,11.569941,-1.421178,-6.53412
673,6.729999999999901,4.656308,-4.1935983,2.7995534,11.94379,-2.160783,-7.259064
674,6.739999999999901,5.2070723,-5.0090117,2.0539613,11.697306,-2.3475552,-8.640994
675,6.7499999999999005,5.538128,-5.792838,1.3802634,10.88287,-1.7157677,-9.501551
676,6.7599999999999,5.413304,-5.933517,1.2199492,9.446573,-0.39706242,-10.47023
677,6.7699999999999,5.055966,-5.7879596,1.0888441,8.2677555,0.41874814,-10.841942
678,6.7799999999999,4.9336414,-5.6168523,1.1829959,7.835721,0.3903429,-10.876303
679,6.7899999999999,4.98273,-5.5017233,1.2741597,7.749284,0.1591304,-10.885618
680,6.7999999999998995,5.0934067,-5.2607946,1.4243515,8.224232,-2.638938,-11.547644
681,6.809999999999899,4.9454713,-5.212987,1.4178876,8.444448,-3.873191,-11.754116
682,6.819999999999899,5.0301104,-5.152557,1.4048381,8.760724,-6.1248403,-11.999684
683,6.829999999999899,5.0404773,-5.0607834,1.2853799,8.821505,-6.9496613,-12.090245
684,6.839999999999899,5.3920217,-4.832294,0.7417506,7.9565196,-8.475144,-12.369563
685,6.849999999999898,5.403547,-4.562705,0.2941635,6.64713,-7.709883,-12.543659
686,6.859999999999898,4.973522,-4.3482413,0.082016975,5.5448236,-6.792516,-12.31092
687,6.869999999999898,4.4880667,-4.1874394,-0.06561358,4.438089,-6.139196,-11.620795
688,6.879999999999898,3.758695,-3.6732023,-0.012500729,3.634801,-6.686073,-10.73672
689,6.8899999999998975,3.61515,-3.480752,0.090919934,3.1435125,-7.567246,-10.217484
690,6.899999999999897,3.8710797,-3.8793728,0.37904653,1.7660115,-7.99027,-10.60233
691,6.909999999999897,3.787782,-5.3021383,0.042441502,-0.7506007,-6.1662264,-11.823449
692,6.919999999999897,1.0157909,-7.3626857,-0.109640546,-5.041471,-3.4738379,-11.848189
693,6.929999999999897,0.47984505,-7.9633913,0.8221821,-6.601468,-2.3727534,-11.702193
694,6.9399999999998965,-1.2512925,-8.470372,3.1418908,-6.601468,-2.3727534,-11.702193
695,6.949999999999896,-2.2852554,-8.352682,4.1193256,-6.601468,-2.3727534,-11.702193
696,6.959999999999896,-3.79388,-8.099924,4.8144884,-3.6377025,1.755474,-7.1998105
697,6.969999999999896,-4.4011106,-7.1589546,3.9903548,0.28512135,-0.8162687,-4.3482914
698,6.979999999999896,-4.318667,-6.8288136,3.4389203,1.6604844,-0.7351763,-2.5439484
699,6.989999999999895,-4.695396,-6.357749,2.601859,1.8700112,0.48670688,-1.018465
700,6.999999999999895,-4.7661924,-6.2310343,2.4388008,1.4311045,2.474615,2.0706804
701,7.009999999999895,-3.966268,-6.2184725,2.529477,1.7510452,3.6932912,5.023298
702,7.019999999999895,-2.5907,-6.210728,2.1689072,2.2133174,4.418236,7.7585993
703,7.0299999999998946,-1.5127102,-6.21518,1.8966352,2.3051,4.627915,8.750492
704,7.039999999999894,0.5597278,-6.2098746,1.5616155,2.245846,5.2215233,10.756574
705,7.049999999999894,2.6410077,-6.042731,1.2139733,2.0851886,5.778327,11.516643
706,7.059999999999894,3.8994958,-5.9584575,0.77522814,0.9973902,7.2815137,12.471272
707,7.069999999999894,4.6832614,-5.3168955,0.69040614,0.17379116,7.5261655,12.210586
708,7.0799999999998935,4.6061835,-5.0508437,0.8296825,-1.1824824,7.9217005,11.526263
709,7.089999999999893,3.893398,-5.2028036,0.84193933,-3.2991304,8.610146,11.447767
710,7.099999999999893,3.4495306,-5.52081,1.1615312,-3.9665008,8.552571,11.701887
711,7.109999999999893,3.4663608,-5.594595,1.3765438,-6.084676,8.045706,13.024105
712,7.119999999999893,3.6015515,-5.870891,1.8725483,-6.245639,8.007069,13.136963
713,7.129999999999892,3.96017,-6.3153076,2.251473,-7.09917,7.259828,14.060743
714,7.139999999999892,4.051944,-6.337504,2.3018417,-7.1039047,6.296799,14.058605
715,7.149999999999892,4.5328865,-6.5742865,2.4630706,-6.6819496,4.519334,13.761572
716,7.159999999999892,4.900408,-6.614837,2.4833765,-5.939901,2.5653286,13.238366
717,7.169999999999892,4.840587,-6.7294173,2.4388618,-4.78674,0.22449298,12.66568
718,7.179999999999891,4.6994205,-6.7857623,2.1554916,-3.9440515,-0.75808376,13.134977
719,7.189999999999891,4.8245497,-6.8194833,1.8940128,-4.071417,-0.14309518,13.579382
720,7.199999999999891,5.2820153,-6.959247,1.5080148,-5.699373,2.3000603,14.338382
721,7.209999999999891,5.8881483,-6.8788157,2.0267036,-7.144222,3.0427198,14.316391
722,7.2199999999998905,6.6656327,-6.3548827,2.947611,-7.318166,2.8104384,13.988356
723,7.22999999999989,7.291828,-5.4704413,3.5205104,-6.6292624,1.2206615,12.437063
724,7.23999999999989,6.8636327,-4.5122147,3.4615433,-4.498106,-1.1181889,9.922895
725,7.24999999999989,6.580384,-4.0796895,2.8613255,-3.329521,-1.3359623,8.757822
726,7.25999999999989,6.4756217,-3.6137474,2.0348747,-4.1621304,1.2124147,8.087703
727,7.269999999999889,6.381897,-3.617345,1.7050385,-6.0112195,4.237878,7.577936
728,7.279999999999889,5.2555504,-3.588624,1.873219,-8.600371,6.4606633,7.0997815
729,7.289999999999889,5.2944555,-3.4242852,3.3203766,-9.716117,4.808731,8.172461
730,7.299999999999889,7.150661,-3.5105097,4.4564795,-8.715215,1.6226108,9.380905
731,7.309999999999889,11.536283,-2.0088367,5.7582016,-5.6731057,-2.298075,7.9568253
732,7.319999999999888,12.76922,-0.6182068,6.631119,-5.2215233,-2.1959078,7.4771433
733,7.329999999999888,14.002097,0.9967045,7.823383,-2.3484714,-0.40744713,4.6668577
734,7.339999999999888,14.500053,1.5617985,7.8530803,3.4451272,1.4691309,-1.2034045
735,7.349999999999888,12.719522,0.32447016,5.272564,4.690529,1.3159565,-3.449556
736,7.3599999999998875,10.154738,-0.2566613,4.5245323,5.930127,1.1707232,-5.330105
737,7.369999999999887,8.370732,-0.9321885,2.9501722,7.243335,2.3109033,-6.6086454
738,7.379999999999887,8.074922,-1.0571349,2.719244,7.4071994,2.8351784,-7.658112
739,7.389999999999887,5.913089,-1.7331499,1.9987751,7.1878986,2.6051877,-8.587086
740,7.399999999999887,5.6427073,-1.7962024,2.0182886,7.0962687,2.3883305,-8.758128
741,7.4099999999998865,5.025415,-1.9401132,2.2283006,7.2370734,1.6146696,-9.205434
742,7.419999999999886,5.025415,-1.9401132,2.2283006,7.279681,1.5525141,-9.278279
743,7.429999999999886,4.675273,-2.9660878,2.119514,7.279681,1.5525141,-9.278279
744,7.439999999999886,4.71058,-3.0940828,2.124819,7.6051197,0.6102544,-9.859671
745,7.449999999999886,5.094505,-3.7529628,1.8453516,8.070293,-0.81016004,-10.657002
746,7.459999999999885,5.30659,-4.154572,1.7349793,8.0341,-1.1258247,-10.977707
747,7.469999999999885,5.673197,-4.4905667,1.5785677,7.9910336,-1.7847955,-11.5502405
748,7.479999999999885,5.768568,-4.6413684,1.4922212,7.765777,-2.535549,-12.244641
749,7.489999999999885,5.90071,-5.0155973,1.2632444,6.843676,-2.8955014,-13.078472
750,7.4999999999998845,5.959067,-5.038221,1.2431213,5.3777523,-2.9605584,-13.680785
751,7.509999999999884,6.061451,-5.2382936,1.407948,5.1208835,-2.981786,-13.727516
752,7.519999999999884,5.7745442,-4.9513865,1.6154602,4.631122,-2.8226557,-13.753325
753,7.529999999999884,5.7802153,-4.8724794,1.5848485,4.5152106,-2.9294043,-13.692391
754,7.539999999999884,6.1111493,-4.6571007,1.5547858,4.171904,-3.345098,-13.521655
755,7.5499999999998835,6.237559,-4.430807,1.6516818,4.1470113,-3.8629591,-13.600456
756,7.559999999999883,6.1238937,-4.349583,1.6641824,4.307516,-4.290412,-13.680785
757,7.569999999999883,5.831926,-4.1976843,1.4230708,4.749325,-5.4189854,-13.59389
758,7.579999999999883,5.8062534,-4.166463,1.3361756,4.80079,-5.6176696,-13.553573
759,7.589999999999883,5.666367,-3.9596214,0.7683985,4.359134,-7.159035,-12.479519
760,7.599999999999882,5.6313653,-3.5837457,0.72687167,4.047899,-7.931474,-11.881329
761,7.609999999999882,5.626914,-3.6341145,0.6694293,3.3617442,-8.116108,-11.605982
762,7.619999999999882,5.414523,-3.9754758,0.70809007,3.0271428,-7.692321,-11.697917
763,7.629999999999882,4.6646624,-5.106883,0.12482436,1.7475327,-6.241363,-12.214708
764,7.6399999999998816,2.8418121,-6.674597,-0.4370377,-0.17669277,-5.8400245,-12.359484
765,7.649999999999881,0.6190605,-7.8614345,0.58497316,-3.268587,-5.3467507,-11.5502405
766,7.659999999999881,-1.3883127,-8.718008,2.798517,-5.240002,-4.0091085,-9.88609
767,7.669999999999881,-2.6561916,-9.1116295,4.1804876,-5.2296176,-1.784032,-7.688197
768,7.679999999999881,-3.766805,-8.948144,4.853454,-4.0825653,0.41874814,-4.8017063
769,7.6899999999998805,-3.398247,-9.089738,4.830648,-2.0926716,1.6314683,-1.4689782
770,7.69999999999988,-3.4128208,-8.948449,4.6932616,-1.0571023,1.717753,-0.42058071
771,7.70999999999988,-4.109691,-8.604954,4.3243985,0.7464773,2.254398,2.143068
772,7.71999999999988,-4.2514677,-8.30774,4.2861648,1.6336064,3.582572,4.9275446
773,7.72999999999988,-4.0614567,-8.19188,4.174573,1.8133535,3.911981,5.594151
774,7.739999999999879,-3.3562324,-8.088642,3.872421,2.3012822,4.9667926,7.7068286
775,7.749999999999879,1.3162354,-7.5298295,2.3042197,2.6032023,7.855269,13.825866
776,7.759999999999879,3.1265848,-7.3011575,2.0627422,2.3529003,8.2779875,15.017817
777,7.769999999999879,7.0059576,-6.4919033,2.125307,2.1911736,8.558986,15.8855505
778,7.779999999999879,8.518241,-5.843268,2.1061594,2.7484355,8.546921,14.4772005
779,7.789999999999878,8.814965,-4.4447713,1.3268458,3.14336,8.241031,11.68066
780,7.799999999999878,8.599038,-4.21799,1.0778677,3.0289752,7.9299474,10.693959
781,7.809999999999878,6.549894,-3.1710386,0.7587638,2.049911,7.270365,8.912982
782,7.819999999999878,5.3409824,-2.9559653,0.53692156,0.5899431,7.790059,8.398787
783,7.8299999999998775,5.3409824,-2.9559653,0.53692156,-1.125061,8.928559,8.545241
784,7.839999999999877,3.965902,-2.9923086,0.6610142,-4.9102874,10.28804,9.120981
785,7.849999999999877,3.4372127,-3.469349,1.2302547,-7.191411,10.753214,9.808052
786,7.859999999999877,3.1920764,-3.9568162,1.6694268,-8.129089,10.358595,10.207559
787,7.869999999999877,3.003651,-4.7083845,2.4428866,-8.722545,9.420611,10.672426
788,7.879999999999876,3.149391,-4.9165063,2.7665637,-8.806233,6.783964,11.679896
789,7.889999999999876,4.118899,-5.084504,3.658933,-7.221496,2.3878722,12.684158
790,7.899999999999876,4.118899,-5.084504,3.658933,-3.4483342,-0.38988474,11.668595
791,7.909999999999876,5.6636233,-4.252992,3.4545918,-3.4483342,-0.38988474,11.668595
792,7.919999999999876,5.351166,-3.6491761,2.1005495,-4.2174134,3.4419203,9.58417
793,7.929999999999875,3.8417485,-3.8636398,1.2201321,-7.6846848,6.7546425,9.531483
794,7.939999999999875,3.4928257,-4.2014036,1.4157534,-9.293399,7.1077228,9.95298
795,7.949999999999875,3.9535234,-4.8053412,2.613872,-10.6767025,5.092325,10.751381
796,7.959999999999875,5.916504,-4.4220266,4.5045314,-9.500329,0.66905016,10.829572
797,7.9699999999998745,6.6697183,-3.8293698,5.028159,-8.285318,-1.0693196,10.41006
798,7.979999999999874,6.6679497,-2.5488682,4.0391994,-3.573409,-1.1394165,7.478365
799,7.989999999999874,6.6679497,-2.5488682,4.0391994,-4.422359,2.3985624,6.6265135
800,7.999999999999874,6.255487,-2.4983776,1.3411148,-6.035654,5.0791917,6.2688518
801,8.009999999999874,5.904186,-2.0967076,1.1406153,-9.258579,7.560832,6.1613398
802,8.019999999999873,6.0298033,-1.4025819,1.6786956,-11.578492,6.9580607,6.2960353
803,8.029999999999873,8.248957,-1.3619697,3.7948556,-13.429567,2.9709432,6.3006167
804,8.039999999999873,9.764899,-0.8097424,5.7383833,-13.5186,0.38530326,5.6428676
805,8.049999999999873,10.327676,-0.10061563,8.70252,-12.283278,-0.23640485,4.2670465
806,8.059999999999873,10.40951,0.08378538,9.339996,-9.549503,1.2896893,3.6112826
807,8.069999999999872,12.125402,0.86797744,11.925879,-4.8850894,3.408628,1.9413297
808,8.079999999999872,11.436826,0.52923816,10.081625,1.9720258,3.5918877,-1.3596333
809,8.089999999999872,9.253711,-0.30690816,7.6997175,6.31543,4.2018366,-5.012302
810,8.099999999999872,6.951259,-1.3188574,5.2676244,8.001266,5.321247,-6.299395
811,8.109999999999872,5.9622993,-1.6377175,3.971756,8.071668,5.796653,-6.176
812,8.119999999999871,5.74314,-1.7590661,3.4817884,7.913759,5.957158,-6.00282
813,8.129999999999871,5.7186265,-1.9077333,3.3883073,8.037002,5.9820504,-6.1526346
814,8.139999999999871,5.4697704,-2.5432582,3.100303,8.664665,5.784741,-6.8083987
815,8.14999999999987,5.4697704,-2.5432582,3.100303,9.6629715,4.7930017,-7.3778777
816,8.15999999999987,5.35019,-3.5245347,2.6677167,10.338131,3.7664423,-7.734012
817,8.16999999999987,5.5569706,-4.3752556,2.031643,11.198076,0.7151705,-8.764542
818,8.17999999999987,5.6224623,-4.528679,1.9518213,11.2416,-0.037110064,-9.14282
819,8.18999999999987,5.9675436,-5.37757,1.9218196,11.222511,-1.3729197,-10.206642
820,8.19999999999987,5.985227,-5.725273,1.9682246,11.292913,-2.664747,-11.53558
821,8.20999999999987,5.854793,-5.799912,1.8932812,11.307727,-3.2378912,-12.040765
822,8.21999999999987,5.807656,-5.596912,1.6115575,11.036197,-4.640896,-12.80511
823,8.229999999999869,5.9229674,-5.5141025,1.3806903,10.5023,-5.6619573,-13.375505
824,8.239999999999869,5.954006,-5.345129,0.8487081,9.196424,-6.462038,-13.992174
825,8.249999999999869,5.821681,-5.049136,0.5450318,7.340462,-6.5839057,-14.207657
826,8.259999999999868,5.7904596,-4.8958955,0.5077735,6.2137213,-6.3846107,-14.111598
827,8.269999999999868,5.869672,-4.514044,1.1924475,4.938998,-6.2796946,-13.701708
828,8.279999999999868,5.734054,-4.3775115,1.1703732,4.681671,-6.3013806,-13.235923
829,8.289999999999868,5.45355,-4.2145753,0.85175705,4.6697593,-6.368728,-12.58978
830,8.299999999999867,5.283052,-3.8910809,0.24958774,4.2076397,-6.6804223,-11.711814
831,8.309999999999867,5.2132916,-3.6197233,-0.10531103,3.375336,-7.098407,-11.076667
832,8.319999999999867,5.014256,-3.3353775,-0.11177482,2.3565655,-7.2564683,-10.53315
833,8.329999999999867,5.025659,-3.3136692,0.4007551,0.7994699,-6.306878,-9.667248
834,8.339999999999867,5.0180974,-3.987428,0.4874065,0.68691796,-5.883854,-9.61227
835,8.349999999999866,4.5573387,-5.001755,-0.028111396,0.24465153,-4.895932,-9.844246
836,8.359999999999866,2.0303624,-6.1201134,-0.43197644,-1.128879,-4.796361,-10.120051
837,8.369999999999866,1.3124546,-6.5305033,0.002500146,-3.632663,-4.4962735,-9.478796
838,8.379999999999866,1.3124546,-6.5305033,0.002500146,-4.4849725,-4.0932555,-9.006291
839,8.389999999999866,-2.1937256,-8.761487,3.3879418,-6.33116,-0.7716755,-6.0391665
840,8.399999999999865,-3.1017663,-9.138034,3.9555967,-6.101933,0.23289238,-4.6729665
841,8.409999999999865,-3.802051,-9.08742,4.5034947,-5.5713964,1.233795,-2.874121
842,8.419999999999865,-4.12024,-9.099921,4.99895,-4.279111,2.0505219,-1.0147998
843,8.429999999999865,-4.822842,-8.661054,4.758936,-2.5706737,2.7178922,0.47235155
844,8.439999999999864,-5.5103216,-8.287496,4.6495395,-1.642922,3.0928106,1.5752687
845,8.449999999999864,-5.095602,-7.9449153,4.303971,0.7496844,4.0262127,5.7300687
846,8.459999999999864,-3.3182425,-7.6412387,3.6567378,2.068848,5.179832,9.0317955
847,8.469999999999864,-1.9724932,-7.460253,3.109084,2.7797422,6.910566,12.317639
848,8.479999999999864,1.279038,-7.1461487,1.9862745,2.6181684,7.792044,13.872749
849,8.489999999999863,3.5636225,-6.992115,1.697843,2.3538165,8.256607,14.658322
850,8.499999999999863,6.3303084,-6.4952574,1.9367595,2.4804184,8.895114,15.017359
851,8.509999999999863,7.929182,-5.990411,1.8744996,2.9571986,8.8288355,14.438258
852,8.519999999999863,8.264873,-4.8088174,1.176715,3.5819612,8.498816,13.198202
853,8.529999999999863,8.022907,-4.5478873,0.93956697,3.7125335,7.8816886,11.381183
854,8.539999999999862,7.1307817,-3.9046183,0.66638035,2.6563475,7.455916,10.325456
855,8.549999999999862,6.3043313,-3.325133,0.44191605,1.1681271,7.814341,9.825156
856,8.559999999999862,5.435988,-2.9998093,0.22117145,-1.1606439,8.398328,9.4862795
857,8.569999999999862,4.5025797,-3.0771918,0.5163716,-3.3942728,8.856477,9.390831
858,8.579999999999862,4.209392,-3.2031136,0.714249,-6.367812,8.700249,9.702984
859,8.589999999999861,3.700399,-3.8185763,1.542712,-8.041736,7.742106,10.213972
860,8.599999999999861,3.7773547,-4.4305024,2.6591794,-8.761029,6.4229426,10.928074
861,8.60999999999986,4.2757983,-4.5345325,3.5806358,-8.62557,5.4197493,11.290317
862,8.61999999999986,5.120421,-4.2791524,4.2316494,-7.3204565,3.359606,11.588266
863,8.62999999999986,5.2854915,-4.187805,4.29208,-6.304129,2.8893926,11.23091
864,8.63999999999986,5.151215,-3.5586224,3.3469024,-6.304129,2.8893926,11.23091
865,8.64999999999986,4.551485,-3.3440366,2.4396546,-5.4652586,4.757571,9.052107
866,8.65999999999986,3.8100393,-3.2853136,2.1147575,-7.672773,4.73726,8.879231
867,8.66999999999986,3.860408,-3.3127542,2.2651932,-8.155968,4.2534547,8.991937
868,8.67999999999986,4.8277206,-3.073472,3.5784407,-8.128478,0.98731095,8.976207
869,8.68999999999986,5.526786,-2.5009387,4.3161664,-6.465398,-0.862389,8.137947
870,8.699999999999859,5.6447806,-2.087256,4.5086775,-5.6866975,-0.9266826,7.66361
871,8.709999999999859,5.405681,-0.76656914,3.442335,-4.448321,4.2143593,5.756489
872,8.719999999999859,5.173473,-0.6808934,2.075426,-5.1810536,5.5923185,5.470909
873,8.729999999999858,5.148654,0.041099958,1.7378453,-8.136878,7.3451962,5.0572004
874,8.739999999999858,6.4653163,0.53960466,2.364772,-8.96628,4.940984,4.6520443
875,8.749999999999858,8.095167,0.53314084,3.720339,-9.286373,0.88178396,3.9694023
876,8.759999999999858,9.619342,1.3917276,6.3292108,-8.89939,-2.0576997,3.0309606
877,8.769999999999857,9.950336,1.9111481,7.1531615,-7.7656245,-0.13103059,2.6864326
878,8.779999999999857,10.840388,2.5896022,8.17755,-7.057937,1.6048957,2.372906
879,8.789999999999857,10.840388,2.5896022,8.17755,-7.057937,1.6048957,2.372906
880,8.799999999999857,10.840388,2.5896022,8.17755,-2.5074492,5.6434784,-1.3620768
881,8.809999999999857,9.345363,1.4075822,8.25164,1.474476,5.134017,-2.9130635
882,8.819999999999856,9.209928,0.94090855,7.834055,2.4333818,5.643784,-3.9562688
883,8.829999999999856,7.136392,-0.16525355,6.7177086,2.8739684,5.9411225,-4.469854
884,8.839999999999856,4.4675775,-1.1038449,4.9141283,7.363217,5.4330354,-5.638286
885,8.849999999999856,4.4675775,-1.1038449,4.9141283,7.363217,5.4330354,-5.638286
886,8.859999999999856,4.4981894,-1.7738839,4.141461,9.3722,3.4112241,-5.499925
887,8.869999999999855,4.4981894,-1.7738839,4.141461,10.79353,1.4871514,-5.984647
888,8.879999999999855,5.1079197,-3.1399393,2.834007,11.372784,0.123547494,-6.8940725
889,8.889999999999855,5.262319,-3.7834523,2.1909816,11.230605,-0.3119994,-7.769137
890,8.899999999999855,5.333787,-4.03926,1.773823,10.964878,-0.27748555,-8.038834
891,8.909999999999854,5.468063,-4.30458,1.6078378,9.757351,-0.045814894,-8.799819
892,8.919999999999854,5.628011,-4.604537,1.8343753,9.345474,-1.0285443,-9.555613
893,8.929999999999854,5.6912465,-4.6767364,1.8383389,9.345474,-1.0285443,-9.555613
894,8.939999999999854,5.9810195,-4.8666863,1.9293199,9.556223,-3.4326046,-10.798418
895,8.949999999999854,6.1616397,-5.0555387,1.9695052,9.722684,-5.1505103,-11.875373
896,8.959999999999853,6.140541,-5.192986,1.8638283,9.721462,-5.7932935,-12.449128
897,8.969999999999853,5.8100343,-5.2385983,1.4970386,9.058674,-7.000821,-12.980275
898,8.979999999999853,5.540445,-4.7346663,0.65485525,7.741648,-6.42279,-12.665527
899,8.989999999999853,5.5525193,-4.5622177,0.46423438,6.33284,-5.7033434,-12.12934
900,8.999999999999853,5.915833,-4.1433516,0.14500846,4.493067,-4.8889074,-11.54856
901,9.009999999999852,6.096514,-4.068957,0.06402813,3.1801646,-4.6395216,-11.494193
902,9.019999999999852,5.9517493,-4.0701156,0.26532036,2.195755,-5.1024046,-11.608578
903,9.029999999999852,5.459892,-4.238845,1.1639704,1.6737708,-7.0533557,-11.334758
904,9.039999999999852,5.465502,-4.502031,1.5902756,1.8443549,-7.7546287,-10.875692
905,9.049999999999851,4.7457037,-4.3991594,2.5106344,2.5146267,-6.8297787,-10.6832695
906,9.059999999999851,4.1065807,-4.81461,1.7257104,2.7311785,-6.5219026,-10.619434
907,9.069999999999851,3.5981367,-5.232561,0.79644895,2.737287,-4.978552,-10.332174
908,9.07999999999985,2.2998903,-5.766129,-0.15000875,1.3381003,-4.827515,-10.268187
909,9.08999999999985,0.71918833,-6.298111,0.36550912,-2.428342,-3.6871827,-9.738872
910,9.09999999999985,0.064089105,-6.7020984,1.1514087,-3.004846,-3.3330336,-9.647243
911,9.10999999999985,-1.7937632,-7.853873,2.9602337,-5.1752505,-0.37568212,-8.761641
912,9.11999999999985,-2.177627,-7.9510126,3.1954305,-5.097365,-0.036651913,-8.476366
913,9.12999999999985,-4.004014,-7.681912,3.5251448,-3.0111074,1.4401149,-4.6083674
914,9.13999999999985,-3.7889407,-7.6830707,3.3674524,-2.24157,1.835192,-3.3034065
915,9.14999999999985,-3.8697991,-7.484339,2.897852,-1.8661933,2.3095288,-2.7621799
916,9.15999999999985,-4.718446,-7.377016,2.5868583,-1.3739886,3.3053918,-1.712408
917,9.169999999999849,-5.278052,-7.2789617,2.4835596,-1.1388055,3.673591,-0.54412824
918,9.179999999999849,-5.58307,-6.993396,2.300622,-0.26557365,4.013385,3.2194126
919,9.189999999999849,-4.4594674,-6.7760663,1.9602972,0.39477167,4.016439,6.3053513
920,9.199999999999848,-2.812969,-6.7138677,1.6339369,0.8544478,4.54499,9.944275
921,9.209999999999848,0.19324298,-6.612459,1.0531712,0.36132678,5.6019397,13.460111
922,9.219999999999848,3.1325607,-6.202374,1.0921979,-0.1742493,5.91119,14.341284
923,9.229999999999848,4.924129,-5.803936,1.5165519,-0.74464476,6.2299094,15.094786
924,9.239999999999847,6.114503,-5.485076,1.7126609,-0.788627,6.3126817,15.176184
925,9.249999999999847,6.7838106,-5.1184087,1.5350286,-0.49648073,6.0773454,14.129313
926,9.259999999999847,6.5169654,-4.776742,1.3044664,-0.79244494,5.692959,13.097714
927,9.269999999999847,6.1352973,-4.619233,1.7582734,-1.1720977,5.509699,12.901627
928,9.279999999999847,6.389458,-4.3501925,2.1702487,-1.6820174,5.941428,12.398732
929,9.289999999999846,5.9425416,-3.7861965,1.8693774,-2.446057,7.4501123,10.795974
930,9.299999999999846,4.7912555,-3.6695435,1.5503954,-3.1019738,8.017301,10.169379
931,9.309999999999846,4.071091,-3.773757,1.4411206,-4.4321327,8.490416,9.712452
932,9.319999999999846,3.8732135,-3.831565,1.4223391,-5.4967184,8.339991,9.927782
933,9.329999999999846,3.26141,-4.5414233,1.762115,-6.1537037,7.6101594,10.335229
934,9.339999999999845,3.7268028,-4.770522,2.350503,-6.4084344,2.8858802,11.684173
935,9.349999999999845,4.542704,-4.8689427,2.9144382,-6.4084344,2.8858802,11.684173
936,9.359999999999845,5.348788,-4.4967256,3.2975705,-2.8644998,-2.4781275,11.766486
937,9.369999999999845,5.3592763,-4.0638347,2.7153416,-2.211332,-1.5215126,11.311544
938,9.379999999999844,5.225732,-3.6865568,1.940418,-3.2183435,2.777757,10.117914
939,9.389999999999844,4.6117935,-3.5930758,1.4175217,-4.519639,5.075832,9.681909
940,9.399999999999844,3.582221,-3.717107,1.3551401,-7.5124207,7.5237217,9.6443405
941,9.409999999999844,3.3713555,-3.8470535,1.5115516,-7.5124207,7.5237217,9.6443405
942,9.419999999999844,5.315066,-3.50368,3.3001313,-8.536689,3.90068,10.446865
943,9.429999999999843,5.9398584,-3.2482994,3.7559507,-7.3418365,0.56046885,9.906554
944,9.439999999999843,6.7980795,-1.8535228,3.4759345,-4.611269,-0.799928,7.091229
945,9.449999999999843,5.8763185,-1.2044605,2.3433075,-5.232366,2.3356433,4.883257
946,9.459999999999843,4.7079577,-1.1999481,1.7438213,-7.2595224,6.1984496,4.213596
947,9.469999999999843,4.286896,-1.2570245,1.6257656,-8.422458,7.9611015,4.2675047
948,9.479999999999842,3.919009,-0.9679833,1.8802317,-10.044763,9.528276,4.594623
949,9.489999999999842,6.028888,-1.30532,3.8426023,-12.713327,6.1947846,5.9041653
950,9.499999999999842,7.619652,-1.5067953,6.1601157,-12.703707,-1.6534595,5.946315
951,9.509999999999842,8.293472,-1.519235,9.1245575,-11.7820635,-3.3454034,5.9945736
952,9.519999999999841,9.19139,-1.243975,11.132052,-6.465703,-0.97524637,6.239683
953,9.529999999999841,11.263645,-0.099457026,12.506583,0.6284276,1.5044084,3.8189769
954,9.539999999999841,11.873498,-0.6626606,9.4690895,5.4939694,2.3183863,1.3078625
955,9.54999999999984,10.998995,-1.36697,6.0309615,7.4669113,2.4223862,-1.8548924
956,9.55999999999984,9.487078,-1.6965014,5.131519,7.4262886,2.840829,-4.854088
957,9.56999999999984,6.518124,-2.107318,4.486481,7.123452,5.024672,-6.6242228
958,9.57999999999984,4.177683,-2.0842679,3.4135528,7.1762924,7.3248854,-5.691279
959,9.58999999999984,4.0179787,-1.9127945,3.0950587,7.3221364,6.846425,-4.6644144
960,9.59999999999984,4.0405407,-1.9624925,3.2103703,7.7468405,5.7251816,-4.597219
961,9.60999999999984,3.8224792,-2.2496436,3.3014123,8.992089,3.3742669,-4.9748864
962,9.61999999999984,3.4658728,-2.789004,2.9613924,10.402424,0.47861293,-5.4458637
963,9.62999999999984,3.439957,-2.9495015,2.8198597,10.887299,-0.79901177,-5.6124773
964,9.639999999999839,3.9893181,-3.6975937,2.2244592,11.2125845,-3.0001118,-6.4075184
965,9.649999999999839,4.244455,-3.9529135,2.0595713,10.762377,-3.992157,-7.5024943
966,9.659999999999838,4.8491244,-4.6899076,1.7842505,10.460303,-4.278195,-8.042652
967,9.669999999999838,4.847356,-4.7342396,1.7916288,9.974818,-4.527886,-8.892518
968,9.679999999999838,4.403794,-4.90803,1.79419,9.1383915,-4.5744643,-10.326524
969,9.689999999999838,4.318484,-4.946203,1.7694324,8.572425,-4.5168905,-11.016649
970,9.699999999999838,4.309337,-4.9370565,1.7560781,7.8829107,-5.1286716,-11.5090065
971,9.709999999999837,4.4205627,-4.7724733,1.7936412,7.71309,-5.712201,-11.639885
972,9.719999999999837,4.57045,-4.6821027,1.7155879,7.382001,-6.9123983,-12.10063
973,9.729999999999837,4.617282,-4.657711,1.6485108,7.177514,-7.1787357,-12.206004
974,9.739999999999837,4.8518686,-4.4533086,1.4124604,6.3013806,-7.44828,-12.423319
975,9.749999999999837,4.925592,-4.354949,1.3886176,5.341406,-7.296633,-12.261134
976,9.759999999999836,4.938154,-4.2511015,1.3855077,5.1836495,-7.2729616,-12.139877
977,9.769999999999836,4.897298,-4.0559683,1.2121439,5.0049715,-7.3221364,-11.683256
978,9.779999999999836,4.779852,-3.8683355,0.8475495,4.9599204,-7.523569,-11.47602
979,9.789999999999836,4.4209895,-3.7127168,0.51655453,4.724279,-8.246986,-11.087968
980,9.799999999999836,3.7721102,-3.3356824,-0.09061504,3.9724567,-8.917258,-10.47695
981,9.809999999999835,3.7721102,-3.3356824,-0.09061504,3.490484,-9.055314,-10.200533
982,9.819999999999835,3.4933743,-3.416175,-0.20104831,1.490053,-8.620072,-9.49926
983,9.829999999999835,3.290314,-3.866323,-0.050856624,1.490053,-8.620072,-9.49926
984,9.839999999999835,1.9553579,-5.184754,-0.7068705,-3.0654745,-3.8415787,-9.098685
985,9.849999999999834,0.6764419,-5.8449144,-0.46649066,-6.358496,-1.7159204,-8.681617
986,9.859999999999834,-0.9094433,-6.6816096,1.9469428,-8.761029,0.3471242,-8.19888
987,9.869999999999834,-1.6149113,-6.850949,2.760161,-8.646339,0.4812091,-8.072737
988,9.879999999999834,-3.4858131,-6.8575344,4.1166425,-5.6654696,0.17745635,-5.900653
989,9.889999999999834,-3.946084,-6.232071,4.3012266,-2.5328,-0.3565926,-3.4136677
990,9.899999999999833,-3.6063693,-6.1223083,3.9894402,-1.7481437,-0.26282477,-2.7999008
991,9.909999999999833,-3.2569582,-5.820035,3.0687156,-0.6114761,0.79336125,-1.6824756
992,9.919999999999833,-3.3847096,-5.7097235,2.7629662,-0.66798115,2.0257819,-0.96867955
993,9.929999999999833,-3.981574,-5.5790453,2.8577275,-0.43783766,2.9791899,0.5225952
994,9.939999999999833,-3.7886965,-5.5570927,2.9568188,-0.28939742,3.1125112,0.9315695
995,9.949999999999832,-3.0715816,-5.5671544,2.7063775,1.3037392,3.691764,4.227646
996,9.959999999999832,-1.9304175,-5.485259,2.1978111,2.2783747,4.21665,6.5328984
997,9.969999999999832,-0.39538893,-5.3489094,1.659365,2.6583328,5.0475793,8.7474375
998,9.979999999999832,2.2296422,-5.1666427,1.3306264,2.610227,6.0654335,10.376004
999,9.989999999999831,3.1416466,-5.0335865,1.2445848,2.5576928,7.2196636,11.136837
1000,9.999999999999831,3.9375467,-4.8624787,1.0993934,2.5231788,7.765319,11.300701
